Treatment,Period,Subject,Group,Profit,TotalProfit,Type,Group1_ID,Group2_ID,Investment,sumInvestment,sumInvestmentGroup1,sumInvestmentGroup2,Profit1_Public_Total,Profit1_Private,Profit1_Public,Fixed,Profit1,TypeP,Assigned,ReceivedPoints,Received,Reduction,Profit2ZERO,1,1,1,145,145,2,0,2,7,61,40,21,402.6,10,46.2,88.8,145,0,0,0,0,0,145ZERO,1,2,1,140.4,140.4,2,0,1,6,61,40,21,402.6,12,39.6,88.8,140.4,0,0,0,0,0,140.4ZERO,1,3,1,102,102,1,3,0,7,61,40,21,402.6,10,46.2,88.8,145,1,40,1,3,43,102ZERO,1,4,1,119,119,1,2,0,2,61,40,21,402.6,20,13.2,88.8,122,1,0,1,3,3,119ZERO,1,5,1,141,141,1,5,0,7,61,40,21,402.6,10,46.2,88.8,145,1,1,1,3,4,141ZERO,1,6,1,149.6,149.6,2,0,3,8,61,40,21,402.6,8,52.8,88.8,149.6,0,0,0,0,0,149.6ZERO,1,7,1,105,105,1,1,0,12,61,40,21,402.6,0,79.2,88.8,168,1,3,20,60,63,105ZERO,1,8,1,105,105,1,4,0,12,61,40,21,402.6,0,79.2,88.8,168,1,0,21,63,63,105ZERO,1,9,2,182.4,182.4,2,0,2,12,58,31,27,452.4,0,93.6,88.8,182.4,0,0,0,0,0,182.4ZERO,1,10,2,164.6,164.6,1,5,0,11,58,31,27,452.4,2,85.8,88.8,176.6,1,0,4,12,12,164.6ZERO,1,11,2,139.8,139.8,1,2,0,5,58,31,27,452.4,14,39,88.8,141.8,1,2,0,0,2,139.8ZERO,1,12,2,141.8,141.8,1,1,0,5,58,31,27,452.4,14,39,88.8,141.8,1,0,0,0,0,141.8ZERO,1,13,2,141.8,141.8,2,0,3,5,58,31,27,452.4,14,39,88.8,141.8,0,0,0,0,0,141.8ZERO,1,14,2,141.8,141.8,1,3,0,5,58,31,27,452.4,14,39,88.8,141.8,1,0,0,0,0,141.8ZERO,1,15,2,139.8,139.8,1,4,0,5,58,31,27,452.4,14,39,88.8,141.8,1,2,0,0,2,139.8ZERO,1,16,2,170.8,170.8,2,0,1,10,58,31,27,452.4,4,78,88.8,170.8,0,0,0,0,0,170.8ZERO,2,1,1,172,317,2,0,2,8,54,34,20,507.6,8,75.2,88.8,172,0,0,0,0,0,172ZERO,2,2,1,149.8,290.2,2,0,1,5,54,34,20,507.6,14,47,88.8,149.8,0,0,0,0,0,149.8ZERO,2,3,1,146.6,248.6,1,3,0,7,54,34,20,507.6,10,65.8,88.8,164.6,1,15,1,3,18,146.6ZERO,2,4,1,119.2,238.2,1,2,0,1,54,34,20,507.6,22,9.4,88.8,120.2,1,1,0,0,1,119.2ZERO,2,5,1,161.6,302.6,1,5,0,7,54,34,20,507.6,10,65.8,88.8,164.6,1,0,1,3,3,161.6ZERO,2,6,1,164.6,314.2,2,0,3,7,54,34,20,507.6,10,65.8,88.8,164.6,0,0,0,0,0,164.6ZERO,2,7,1,150.6,255.6,1,1,0,12,54,34,20,507.6,0,112.8,88.8,201.6,1,3,16,48,51,150.6ZERO,2,8,1,161.6,266.6,1,4,0,7,54,34,20,507.6,10,65.8,88.8,164.6,1,0,1,3,3,161.6ZERO,2,9,2,177.6,360,2,0,2,12,59,33,26,436.6,0,88.8,88.8,177.6,0,0,0,0,0,177.6ZERO,2,10,2,166.8,331.4,1,5,0,10,59,33,26,436.6,4,74,88.8,166.8,1,0,0,0,0,166.8ZERO,2,11,2,139.8,279.6,1,2,0,5,59,33,26,436.6,14,37,88.8,139.8,1,0,0,0,0,139.8ZERO,2,12,2,145.2,287,1,1,0,6,59,33,26,436.6,12,44.4,88.8,145.2,1,0,0,0,0,145.2ZERO,2,13,2,129,270.8,2,0,3,3,59,33,26,436.6,18,22.2,88.8,129,0,0,0,0,0,129ZERO,2,14,2,139.8,281.6,1,3,0,5,59,33,26,436.6,14,37,88.8,139.8,1,0,0,0,0,139.8ZERO,2,15,2,150.6,290.4,1,4,0,7,59,33,26,436.6,10,51.8,88.8,150.6,1,0,0,0,0,150.6ZERO,2,16,2,172.2,343,2,0,1,11,59,33,26,436.6,2,81.4,88.8,172.2,0,0,0,0,0,172.2ZERO,3,1,1,166.8,483.8,2,0,2,10,59,38,21,436.6,4,74,88.8,166.8,0,0,0,0,0,166.8ZERO,3,2,1,134.4,424.6,2,0,1,4,59,38,21,436.6,16,29.6,88.8,134.4,0,0,0,0,0,134.4ZERO,3,3,1,107.6,356.2,1,3,0,7,59,38,21,436.6,10,51.8,88.8,150.6,1,40,1,3,43,107.6ZERO,3,4,1,109.2,347.4,1,2,0,1,59,38,21,436.6,22,7.4,88.8,118.2,1,0,3,9,9,109.2ZERO,3,5,1,139.2,441.8,1,5,0,6,59,38,21,436.6,12,44.4,88.8,145.2,1,3,1,3,6,139.2ZERO,3,6,1,150.6,464.8,2,0,3,7,59,38,21,436.6,10,51.8,88.8,150.6,0,0,0,0,0,150.6ZERO,3,7,1,113.6,369.2,1,1,0,12,59,38,21,436.6,0,88.8,88.8,177.6,1,4,20,60,64,113.6ZERO,3,8,1,111.6,378.2,1,4,0,12,59,38,21,436.6,0,88.8,88.8,177.6,1,0,22,66,66,111.6ZERO,3,9,2,163.2,523.2,2,0,2,12,62,39,23,384.4,0,74.4,88.8,163.2,0,0,0,0,0,163.2ZERO,3,10,2,163.2,494.6,1,5,0,12,62,39,23,384.4,0,74.4,88.8,163.2,1,0,0,0,0,163.2ZERO,3,11,2,133.8,413.4,1,2,0,5,62,39,23,384.4,14,31,88.8,133.8,1,0,0,0,0,133.8ZERO,3,12,2,146.4,433.4,1,1,0,8,62,39,23,384.4,8,49.6,88.8,146.4,1,0,0,0,0,146.4ZERO,3,13,2,112.8,383.6,2,0,3,0,62,39,23,384.4,24,0,88.8,112.8,0,0,0,0,0,112.8ZERO,3,14,2,129.6,411.2,1,3,0,4,62,39,23,384.4,16,24.8,88.8,129.6,1,0,0,0,0,129.6ZERO,3,15,2,154.8,445.2,1,4,0,10,62,39,23,384.4,4,62,88.8,154.8,1,0,0,0,0,154.8ZERO,3,16,2,159,502,2,0,1,11,62,39,23,384.4,2,68.2,88.8,159,0,0,0,0,0,159ZERO,4,1,1,175.2,659,2,0,2,8,53,37,16,519.4,8,78.4,88.8,175.2,0,0,0,0,0,175.2ZERO,4,2,1,136.2,560.8,2,0,1,3,53,37,16,519.4,18,29.4,88.8,136.2,0,0,0,0,0,136.2ZERO,4,3,1,104.4,460.6,1,3,0,7,53,37,16,519.4,10,68.6,88.8,167.4,1,60,1,3,63,104.4ZERO,4,4,1,126.4,473.8,1,2,0,2,53,37,16,519.4,20,19.6,88.8,128.4,1,2,0,0,2,126.4ZERO,4,5,1,141,582.8,1,5,0,4,53,37,16,519.4,16,39.2,88.8,144,1,0,1,3,3,141ZERO,4,6,1,151.8,616.6,2,0,3,5,53,37,16,519.4,14,49,88.8,151.8,0,0,0,0,0,151.8ZERO,4,7,1,109.4,478.6,1,1,0,12,53,37,16,519.4,0,117.6,88.8,206.4,1,4,31,93,97,109.4ZERO,4,8,1,107.4,485.6,1,4,0,12,53,37,16,519.4,0,117.6,88.8,206.4,1,0,33,99,99,107.4ZERO,4,9,2,158.4,681.6,2,0,2,12,63,37,26,365.4,0,69.6,88.8,158.4,0,0,0,0,0,158.4ZERO,4,10,2,148.6,643.2,1,5,0,11,63,37,26,365.4,2,63.8,88.8,154.6,1,0,2,6,6,148.6ZERO,4,11,2,131.8,545.2,1,2,0,5,63,37,26,365.4,14,29,88.8,131.8,1,0,0,0,0,131.8ZERO,4,12,2,139.4,572.8,1,1,0,7,63,37,26,365.4,10,40.6,88.8,139.4,1,0,0,0,0,139.4ZERO,4,13,2,128,511.6,2,0,3,4,63,37,26,365.4,16,23.2,88.8,128,0,0,0,0,0,128ZERO,4,14,2,131.8,543,1,3,0,5,63,37,26,365.4,14,29,88.8,131.8,1,0,0,0,0,131.8ZERO,4,15,2,145,590.2,1,4,0,9,63,37,26,365.4,6,52.2,88.8,147,1,2,0,0,2,145ZERO,4,16,2,150.8,652.8,2,0,1,10,63,37,26,365.4,4,58,88.8,150.8,0,0,0,0,0,150.8ZERO,5,1,1,190.2,849.2,2,0,2,9,51,32,19,540.6,6,95.4,88.8,190.2,0,0,0,0,0,190.2ZERO,5,2,1,155.8,716.6,2,0,1,5,51,32,19,540.6,14,53,88.8,155.8,0,0,0,0,0,155.8ZERO,5,3,1,140.8,601.4,1,3,0,5,51,32,19,540.6,14,53,88.8,155.8,1,15,0,0,15,140.8ZERO,5,4,1,155.8,629.6,1,2,0,5,51,32,19,540.6,14,53,88.8,155.8,1,0,0,0,0,155.8ZERO,5,5,1,150.8,733.6,1,5,0,5,51,32,19,540.6,14,53,88.8,155.8,1,5,0,0,5,150.8ZERO,5,6,1,155.8,772.4,2,0,3,5,51,32,19,540.6,14,53,88.8,155.8,0,0,0,0,0,155.8ZERO,5,7,1,156,634.6,1,1,0,12,51,32,19,540.6,0,127.2,88.8,216,1,0,20,60,60,156ZERO,5,8,1,155.8,641.4,1,4,0,5,51,32,19,540.6,14,53,88.8,155.8,1,0,0,0,0,155.8ZERO,5,9,2,148.8,830.4,2,0,2,12,65,31,34,325,0,60,88.8,148.8,0,0,0,0,0,148.8ZERO,5,10,2,118.8,762,1,5,0,8,65,31,34,325,8,40,88.8,136.8,1,0,6,18,18,118.8ZERO,5,11,2,124.8,670,1,2,0,6,65,31,34,325,12,30,88.8,130.8,1,6,0,0,6,124.8ZERO,5,12,2,127.8,700.6,1,1,0,5,65,31,34,325,14,25,88.8,127.8,1,0,0,0,0,127.8ZERO,5,13,2,148.8,660.4,2,0,3,12,65,31,34,325,0,60,88.8,148.8,0,0,0,0,0,148.8ZERO,5,14,2,130.8,673.8,1,3,0,6,65,31,34,325,12,30,88.8,130.8,1,0,0,0,0,130.8ZERO,5,15,2,130.8,721,1,4,0,6,65,31,34,325,12,30,88.8,130.8,1,0,0,0,0,130.8ZERO,5,16,2,142.8,795.6,2,0,1,10,65,31,34,325,4,50,88.8,142.8,0,0,0,0,0,142.8ZERO,6,1,1,181.6,1030.8,2,0,2,8,51,32,19,540.6,8,84.8,88.8,181.6,0,0,0,0,0,181.6ZERO,6,2,1,155.8,872.4,2,0,1,5,51,32,19,540.6,14,53,88.8,155.8,0,0,0,0,0,155.8ZERO,6,3,1,137.8,739.2,1,3,0,5,51,32,19,540.6,14,53,88.8,155.8,1,15,1,3,18,137.8ZERO,6,4,1,161.4,791,1,2,0,6,51,32,19,540.6,12,63.6,88.8,164.4,1,0,1,3,3,161.4ZERO,6,5,1,147.8,881.4,1,5,0,5,51,32,19,540.6,14,53,88.8,155.8,1,5,1,3,8,147.8ZERO,6,6,1,164.4,936.8,2,0,3,6,51,32,19,540.6,12,63.6,88.8,164.4,0,0,0,0,0,164.4ZERO,6,7,1,153,787.6,1,1,0,12,51,32,19,540.6,0,127.2,88.8,216,1,3,20,60,63,153ZERO,6,8,1,147.2,788.6,1,4,0,4,51,32,19,540.6,16,42.4,88.8,147.2,1,0,0,0,0,147.2ZERO,6,9,2,158.4,988.8,2,0,2,12,63,36,27,365.4,0,69.6,88.8,158.4,0,0,0,0,0,158.4ZERO,6,10,2,146.4,908.4,1,5,0,12,63,36,27,365.4,0,69.6,88.8,158.4,1,0,4,12,12,146.4ZERO,6,11,2,131.8,801.8,1,2,0,5,63,36,27,365.4,14,29,88.8,131.8,1,0,0,0,0,131.8ZERO,6,12,2,135.6,836.2,1,1,0,6,63,36,27,365.4,12,34.8,88.8,135.6,1,0,0,0,0,135.6ZERO,6,13,2,143.2,803.6,2,0,3,8,63,36,27,365.4,8,46.4,88.8,143.2,0,0,0,0,0,143.2ZERO,6,14,2,135.6,809.4,1,3,0,6,63,36,27,365.4,12,34.8,88.8,135.6,1,0,0,0,0,135.6ZERO,6,15,2,135.4,856.4,1,4,0,7,63,36,27,365.4,10,40.6,88.8,139.4,1,4,0,0,4,135.4ZERO,6,16,2,139.4,935,2,0,1,7,63,36,27,365.4,10,40.6,88.8,139.4,0,0,0,0,0,139.4ZERO,7,1,1,194.2,1225,2,0,2,11,54,32,22,507.6,2,103.4,88.8,194.2,0,0,0,0,0,194.2ZERO,7,2,1,149.8,1022.2,2,0,1,5,54,32,22,507.6,14,47,88.8,149.8,0,0,0,0,0,149.8ZERO,7,3,1,131.8,871,1,3,0,5,54,32,22,507.6,14,47,88.8,149.8,1,15,1,3,18,131.8ZERO,7,4,1,149.8,940.8,1,2,0,5,54,32,22,507.6,14,47,88.8,149.8,1,0,0,0,0,149.8ZERO,7,5,1,130.8,1012.2,1,5,0,5,54,32,22,507.6,14,47,88.8,149.8,1,19,0,0,19,130.8ZERO,7,6,1,157.2,1094,2,0,3,6,54,32,22,507.6,12,56.4,88.8,157.2,0,0,0,0,0,157.2ZERO,7,7,1,38.6,826.2,1,1,0,12,54,32,22,507.6,0,112.8,88.8,201.6,1,1,54,162,163,38.6ZERO,7,8,1,129.8,918.4,1,4,0,5,54,32,22,507.6,14,47,88.8,149.8,1,20,0,0,20,129.8ZERO,7,9,2,192,1180.8,2,0,2,12,56,27,29,481.6,0,103.2,88.8,192,0,0,0,0,0,192ZERO,7,10,2,152.4,1060.8,1,5,0,6,56,27,29,481.6,12,51.6,88.8,152.4,1,0,0,0,0,152.4ZERO,7,11,2,145.8,947.6,1,2,0,5,56,27,29,481.6,14,43,88.8,145.8,1,0,0,0,0,145.8ZERO,7,12,2,145.8,982,1,1,0,5,56,27,29,481.6,14,43,88.8,145.8,1,0,0,0,0,145.8ZERO,7,13,2,178.8,982.4,2,0,3,10,56,27,29,481.6,4,86,88.8,178.8,0,0,0,0,0,178.8ZERO,7,14,2,145.8,955.2,1,3,0,5,56,27,29,481.6,14,43,88.8,145.8,1,0,0,0,0,145.8ZERO,7,15,2,152.4,1008.8,1,4,0,6,56,27,29,481.6,12,51.6,88.8,152.4,1,0,0,0,0,152.4ZERO,7,16,2,159,1094,2,0,1,7,56,27,29,481.6,10,60.2,88.8,159,0,0,0,0,0,159ZERO,8,1,1,192,1417,2,0,2,12,56,32,24,481.6,0,103.2,88.8,192,0,0,0,0,0,192ZERO,8,2,1,152.4,1174.6,2,0,1,6,56,32,24,481.6,12,51.6,88.8,152.4,0,0,0,0,0,152.4ZERO,8,3,1,149.4,1020.4,1,3,0,6,56,32,24,481.6,12,51.6,88.8,152.4,1,0,1,3,3,149.4ZERO,8,4,1,156,1096.8,1,2,0,7,56,32,24,481.6,10,60.2,88.8,159,1,0,1,3,3,156ZERO,8,5,1,132.8,1145,1,5,0,5,56,32,24,481.6,14,43,88.8,145.8,1,10,1,3,13,132.8ZERO,8,6,1,152.4,1246.4,2,0,3,6,56,32,24,481.6,12,51.6,88.8,152.4,0,0,0,0,0,152.4ZERO,8,7,1,131.6,957.8,1,1,0,8,56,32,24,481.6,8,68.8,88.8,165.6,1,4,10,30,34,131.6ZERO,8,8,1,149.4,1067.8,1,4,0,6,56,32,24,481.6,12,51.6,88.8,152.4,1,0,1,3,3,149.4ZERO,8,9,2,187.2,1368,2,0,2,12,57,33,24,467.4,0,98.4,88.8,187.2,0,0,0,0,0,187.2ZERO,8,10,2,181.2,1242,1,5,0,12,57,33,24,467.4,0,98.4,88.8,187.2,1,0,2,6,6,181.2ZERO,8,11,2,143.8,1091.4,1,2,0,5,57,33,24,467.4,14,41,88.8,143.8,1,0,0,0,0,143.8ZERO,8,12,2,150,1132,1,1,0,6,57,33,24,467.4,12,49.2,88.8,150,1,0,0,0,0,150ZERO,8,13,2,143.8,1126.2,2,0,3,5,57,33,24,467.4,14,41,88.8,143.8,0,0,0,0,0,143.8ZERO,8,14,2,150,1105.2,1,3,0,6,57,33,24,467.4,12,49.2,88.8,150,1,0,0,0,0,150ZERO,8,15,2,135.6,1144.4,1,4,0,4,57,33,24,467.4,16,32.8,88.8,137.6,1,2,0,0,2,135.6ZERO,8,16,2,156.2,1250.2,2,0,1,7,57,33,24,467.4,10,57.4,88.8,156.2,0,0,0,0,0,156.2ZERO,9,1,1,204,1621,2,0,2,8,44,24,20,589.6,8,107.2,88.8,204,0,0,0,0,0,204ZERO,9,2,1,181.2,1355.8,2,0,1,6,44,24,20,589.6,12,80.4,88.8,181.2,0,0,0,0,0,181.2ZERO,9,3,1,169.8,1190.2,1,3,0,5,44,24,20,589.6,14,67,88.8,169.8,1,0,0,0,0,169.8ZERO,9,4,1,169.8,1266.6,1,2,0,5,44,24,20,589.6,14,67,88.8,169.8,1,0,0,0,0,169.8ZERO,9,5,1,169.8,1314.8,1,5,0,5,44,24,20,589.6,14,67,88.8,169.8,1,0,0,0,0,169.8ZERO,9,6,1,181.2,1427.6,2,0,3,6,44,24,20,589.6,12,80.4,88.8,181.2,0,0,0,0,0,181.2ZERO,9,7,1,169.8,1127.6,1,1,0,5,44,24,20,589.6,14,67,88.8,169.8,1,0,0,0,0,169.8ZERO,9,8,1,158.4,1226.2,1,4,0,4,44,24,20,589.6,16,53.6,88.8,158.4,1,0,0,0,0,158.4ZERO,9,9,2,254.4,1622.4,2,0,2,12,43,20,23,593.4,0,165.6,88.8,254.4,0,0,0,0,0,254.4ZERO,9,10,2,160,1402,1,5,0,4,43,20,23,593.4,16,55.2,88.8,160,1,0,0,0,0,160ZERO,9,11,2,160,1251.4,1,2,0,4,43,20,23,593.4,16,55.2,88.8,160,1,0,0,0,0,160ZERO,9,12,2,160,1292,1,1,0,4,43,20,23,593.4,16,55.2,88.8,160,1,0,0,0,0,160ZERO,9,13,2,171.8,1298,2,0,3,5,43,20,23,593.4,14,69,88.8,171.8,0,0,0,0,0,171.8ZERO,9,14,2,160,1265.2,1,3,0,4,43,20,23,593.4,16,55.2,88.8,160,1,0,0,0,0,160ZERO,9,15,2,160,1304.4,1,4,0,4,43,20,23,593.4,16,55.2,88.8,160,1,0,0,0,0,160ZERO,9,16,2,183.6,1433.8,2,0,1,6,43,20,23,593.4,12,82.8,88.8,183.6,0,0,0,0,0,183.6ZERO,10,1,1,230.4,1851.4,2,0,2,12,48,25,23,566.4,0,141.6,88.8,230.4,0,0,0,0,0,230.4ZERO,10,2,1,171.6,1527.4,2,0,1,6,48,25,23,566.4,12,70.8,88.8,171.6,0,0,0,0,0,171.6ZERO,10,3,1,161.8,1352,1,3,0,5,48,25,23,566.4,14,59,88.8,161.8,1,0,0,0,0,161.8ZERO,10,4,1,161.8,1428.4,1,2,0,5,48,25,23,566.4,14,59,88.8,161.8,1,0,0,0,0,161.8ZERO,10,5,1,161.8,1476.6,1,5,0,5,48,25,23,566.4,14,59,88.8,161.8,1,0,0,0,0,161.8ZERO,10,6,1,161.8,1589.4,2,0,3,5,48,25,23,566.4,14,59,88.8,161.8,0,0,0,0,0,161.8ZERO,10,7,1,161.8,1289.4,1,1,0,5,48,25,23,566.4,14,59,88.8,161.8,1,0,0,0,0,161.8ZERO,10,8,1,161.8,1388,1,4,0,5,48,25,23,566.4,14,59,88.8,161.8,1,0,0,0,0,161.8ZERO,10,9,2,230.4,1852.8,2,0,2,12,48,25,23,566.4,0,141.6,88.8,230.4,0,0,0,0,0,230.4ZERO,10,10,2,155.2,1557.2,1,5,0,8,48,25,23,566.4,8,94.4,88.8,191.2,1,0,12,36,36,155.2ZERO,10,11,2,142,1393.4,1,2,0,4,48,25,23,566.4,16,47.2,88.8,152,1,10,0,0,10,142ZERO,10,12,2,160.8,1452.8,1,1,0,5,48,25,23,566.4,14,59,88.8,161.8,1,1,0,0,1,160.8ZERO,10,13,2,161.8,1459.8,2,0,3,5,48,25,23,566.4,14,59,88.8,161.8,0,0,0,0,0,161.8ZERO,10,14,2,151,1416.2,1,3,0,4,48,25,23,566.4,16,47.2,88.8,152,1,1,0,0,1,151ZERO,10,15,2,152,1456.4,1,4,0,4,48,25,23,566.4,16,47.2,88.8,152,1,0,0,0,0,152ZERO,10,16,2,171.6,1605.4,2,0,1,6,48,25,23,566.4,12,70.8,88.8,171.6,0,0,0,0,0,171.6ZERO,11,1,1,249.6,2101,2,0,2,12,44,21,23,589.6,0,160.8,88.8,249.6,0,0,0,0,0,249.6ZERO,11,2,1,181.2,1708.6,2,0,1,6,44,21,23,589.6,12,80.4,88.8,181.2,0,0,0,0,0,181.2ZERO,11,3,1,169.8,1521.8,1,3,0,5,44,21,23,589.6,14,67,88.8,169.8,1,0,0,0,0,169.8ZERO,11,4,1,158.4,1586.8,1,2,0,4,44,21,23,589.6,16,53.6,88.8,158.4,1,0,0,0,0,158.4ZERO,11,5,1,158.4,1635,1,5,0,4,44,21,23,589.6,16,53.6,88.8,158.4,1,0,0,0,0,158.4ZERO,11,6,1,169.8,1759.2,2,0,3,5,44,21,23,589.6,14,67,88.8,169.8,0,0,0,0,0,169.8ZERO,11,7,1,158.4,1447.8,1,1,0,4,44,21,23,589.6,16,53.6,88.8,158.4,1,0,0,0,0,158.4ZERO,11,8,1,158.4,1546.4,1,4,0,4,44,21,23,589.6,16,53.6,88.8,158.4,1,0,0,0,0,158.4ZERO,11,9,2,235.2,2088,2,0,2,12,47,22,25,573.4,0,146.4,88.8,235.2,0,0,0,0,0,235.2ZERO,11,10,2,162,1719.2,1,5,0,6,47,22,25,573.4,12,73.2,88.8,174,1,0,4,12,12,162ZERO,11,11,2,150.6,1544,1,2,0,4,47,22,25,573.4,16,48.8,88.8,153.6,1,3,0,0,3,150.6ZERO,11,12,2,152.6,1605.4,1,1,0,4,47,22,25,573.4,16,48.8,88.8,153.6,1,1,0,0,1,152.6ZERO,11,13,2,163.8,1623.6,2,0,3,5,47,22,25,573.4,14,61,88.8,163.8,0,0,0,0,0,163.8ZERO,11,14,2,153.6,1569.8,1,3,0,4,47,22,25,573.4,16,48.8,88.8,153.6,1,0,0,0,0,153.6ZERO,11,15,2,153.6,1610,1,4,0,4,47,22,25,573.4,16,48.8,88.8,153.6,1,0,0,0,0,153.6ZERO,11,16,2,194.4,1799.8,2,0,1,8,47,22,25,573.4,8,97.6,88.8,194.4,0,0,0,0,0,194.4ZERO,12,1,1,240,2341,2,0,2,12,46,23,23,579.6,0,151.2,88.8,240,0,0,0,0,0,240ZERO,12,2,1,176.4,1885,2,0,1,6,46,23,23,579.6,12,75.6,88.8,176.4,0,0,0,0,0,176.4ZERO,12,3,1,165.8,1687.6,1,3,0,5,46,23,23,579.6,14,63,88.8,165.8,1,0,0,0,0,165.8ZERO,12,4,1,165.8,1752.6,1,2,0,5,46,23,23,579.6,14,63,88.8,165.8,1,0,0,0,0,165.8ZERO,12,5,1,155.2,1790.2,1,5,0,4,46,23,23,579.6,16,50.4,88.8,155.2,1,0,0,0,0,155.2ZERO,12,6,1,165.8,1925,2,0,3,5,46,23,23,579.6,14,63,88.8,165.8,0,0,0,0,0,165.8ZERO,12,7,1,155.2,1603,1,1,0,4,46,23,23,579.6,16,50.4,88.8,155.2,1,0,0,0,0,155.2ZERO,12,8,1,165.8,1712.2,1,4,0,5,46,23,23,579.6,14,63,88.8,165.8,1,0,0,0,0,165.8ZERO,12,9,2,211.2,2299.2,2,0,2,12,52,27,25,530.4,0,122.4,88.8,211.2,0,0,0,0,0,211.2ZERO,12,10,2,153.8,1873,1,5,0,5,52,27,25,530.4,14,51,88.8,153.8,1,0,0,0,0,153.8ZERO,12,11,2,140.6,1684.6,1,2,0,4,52,27,25,530.4,16,40.8,88.8,145.6,1,5,0,0,5,140.6ZERO,12,12,2,153.8,1759.2,1,1,0,5,52,27,25,530.4,14,51,88.8,153.8,1,0,0,0,0,153.8ZERO,12,13,2,153.8,1777.4,2,0,3,5,52,27,25,530.4,14,51,88.8,153.8,0,0,0,0,0,153.8ZERO,12,14,2,145.6,1715.4,1,3,0,4,52,27,25,530.4,16,40.8,88.8,145.6,1,0,0,0,0,145.6ZERO,12,15,2,171.6,1781.6,1,4,0,9,52,27,25,530.4,6,91.8,88.8,186.6,1,0,5,15,15,171.6ZERO,12,16,2,178.4,1978.2,2,0,1,8,52,27,25,530.4,8,81.6,88.8,178.4,0,0,0,0,0,178.4ZERO,13,1,1,210.8,2551.8,2,0,2,10,48,25,23,566.4,4,118,88.8,210.8,0,0,0,0,0,210.8ZERO,13,2,1,191.2,2076.2,2,0,1,8,48,25,23,566.4,8,94.4,88.8,191.2,0,0,0,0,0,191.2ZERO,13,3,1,151.8,1839.4,1,3,0,5,48,25,23,566.4,14,59,88.8,161.8,1,10,0,0,10,151.8ZERO,13,4,1,152,1904.6,1,2,0,4,48,25,23,566.4,16,47.2,88.8,152,1,0,0,0,0,152ZERO,13,5,1,142,1932.2,1,5,0,4,48,25,23,566.4,16,47.2,88.8,152,1,10,0,0,10,142ZERO,13,6,1,161.8,2086.8,2,0,3,5,48,25,23,566.4,14,59,88.8,161.8,0,0,0,0,0,161.8ZERO,13,7,1,152,1755,1,1,0,4,48,25,23,566.4,16,47.2,88.8,152,1,0,0,0,0,152ZERO,13,8,1,131.2,1843.4,1,4,0,8,48,25,23,566.4,8,94.4,88.8,191.2,1,0,20,60,60,131.2ZERO,13,9,2,163.2,2462.4,2,0,2,12,62,33,29,384.4,0,74.4,88.8,163.2,0,0,0,0,0,163.2ZERO,13,10,2,151.2,2024.2,1,5,0,12,62,33,29,384.4,0,74.4,88.8,163.2,1,0,4,12,12,151.2ZERO,13,11,2,130.8,1815.4,1,2,0,5,62,33,29,384.4,14,31,88.8,133.8,1,3,0,0,3,130.8ZERO,13,12,2,132.8,1892,1,1,0,5,62,33,29,384.4,14,31,88.8,133.8,1,1,0,0,1,132.8ZERO,13,13,2,154.8,1932.2,2,0,3,10,62,33,29,384.4,4,62,88.8,154.8,0,0,0,0,0,154.8ZERO,13,14,2,133.8,1849.2,1,3,0,5,62,33,29,384.4,14,31,88.8,133.8,1,0,0,0,0,133.8ZERO,13,15,2,138,1919.6,1,4,0,6,62,33,29,384.4,12,37.2,88.8,138,1,0,0,0,0,138ZERO,13,16,2,142.2,2120.4,2,0,1,7,62,33,29,384.4,10,43.4,88.8,142.2,0,0,0,0,0,142.2ZERO,14,1,1,235.2,2787,2,0,2,12,47,23,24,573.4,0,146.4,88.8,235.2,0,0,0,0,0,235.2ZERO,14,2,1,194.4,2270.6,2,0,1,8,47,23,24,573.4,8,97.6,88.8,194.4,0,0,0,0,0,194.4ZERO,14,3,1,148.8,1988.2,1,3,0,5,47,23,24,573.4,14,61,88.8,163.8,1,0,5,15,15,148.8ZERO,14,4,1,148.8,2053.4,1,2,0,5,47,23,24,573.4,14,61,88.8,163.8,1,0,5,15,15,148.8ZERO,14,5,1,138.6,2070.8,1,5,0,4,47,23,24,573.4,16,48.8,88.8,153.6,1,15,0,0,15,138.6ZERO,14,6,1,153.6,2240.4,2,0,3,4,47,23,24,573.4,16,48.8,88.8,153.6,0,0,0,0,0,153.6ZERO,14,7,1,153.6,1908.6,1,1,0,4,47,23,24,573.4,16,48.8,88.8,153.6,1,0,0,0,0,153.6ZERO,14,8,1,148.8,1992.2,1,4,0,5,47,23,24,573.4,14,61,88.8,163.8,1,0,5,15,15,148.8ZERO,14,9,2,134.4,2596.8,2,0,2,12,68,44,24,258.4,0,45.6,88.8,134.4,0,0,0,0,0,134.4ZERO,14,10,2,127.2,2151.4,1,5,0,8,68,44,24,258.4,8,30.4,88.8,127.2,1,0,0,0,0,127.2ZERO,14,11,2,125.4,1940.8,1,2,0,7,68,44,24,258.4,10,26.6,88.8,125.4,1,0,0,0,0,125.4ZERO,14,12,2,130.8,2022.8,1,1,0,10,68,44,24,258.4,4,38,88.8,130.8,1,0,0,0,0,130.8ZERO,14,13,2,121.8,2054,2,0,3,5,68,44,24,258.4,14,19,88.8,121.8,0,0,0,0,0,121.8ZERO,14,14,2,125.4,1974.6,1,3,0,7,68,44,24,258.4,10,26.6,88.8,125.4,1,0,0,0,0,125.4ZERO,14,15,2,134.4,2054,1,4,0,12,68,44,24,258.4,0,45.6,88.8,134.4,1,0,0,0,0,134.4ZERO,14,16,2,125.4,2245.8,2,0,1,7,68,44,24,258.4,10,26.6,88.8,125.4,0,0,0,0,0,125.4ZERO,15,1,1,153.6,2940.6,2,0,2,12,64,36,28,345.6,0,64.8,88.8,153.6,0,0,0,0,0,153.6ZERO,15,2,1,146.8,2417.4,2,0,1,10,64,36,28,345.6,4,54,88.8,146.8,0,0,0,0,0,146.8ZERO,15,3,1,126.4,2114.6,1,3,0,4,64,36,28,345.6,16,21.6,88.8,126.4,1,0,0,0,0,126.4ZERO,15,4,1,126.4,2179.8,1,2,0,4,64,36,28,345.6,16,21.6,88.8,126.4,1,0,0,0,0,126.4ZERO,15,5,1,116.4,2187.2,1,5,0,4,64,36,28,345.6,16,21.6,88.8,126.4,1,10,0,0,10,116.4ZERO,15,6,1,133.2,2373.6,2,0,3,6,64,36,28,345.6,12,32.4,88.8,133.2,0,0,0,0,0,133.2ZERO,15,7,1,138.6,2047.2,1,1,0,12,64,36,28,345.6,0,64.8,88.8,153.6,1,0,5,15,15,138.6ZERO,15,8,1,138.6,2130.8,1,4,0,12,64,36,28,345.6,0,64.8,88.8,153.6,1,0,5,15,15,138.6ZERO,15,9,2,168,2764.8,2,0,2,12,61,33,28,402.6,0,79.2,88.8,168,0,0,0,0,0,168ZERO,15,10,2,149.6,2301,1,5,0,8,61,33,28,402.6,8,52.8,88.8,149.6,1,0,0,0,0,149.6ZERO,15,11,2,145,2085.8,1,2,0,7,61,33,28,402.6,10,46.2,88.8,145,1,0,0,0,0,145ZERO,15,12,2,135.8,2158.6,1,1,0,5,61,33,28,402.6,14,33,88.8,135.8,1,0,0,0,0,135.8ZERO,15,13,2,149.6,2203.6,2,0,3,8,61,33,28,402.6,8,52.8,88.8,149.6,0,0,0,0,0,149.6ZERO,15,14,2,135.8,2110.4,1,3,0,5,61,33,28,402.6,14,33,88.8,135.8,1,0,0,0,0,135.8ZERO,15,15,2,149.6,2203.6,1,4,0,8,61,33,28,402.6,8,52.8,88.8,149.6,1,0,0,0,0,149.6ZERO,15,16,2,149.6,2395.4,2,0,1,8,61,33,28,402.6,8,52.8,88.8,149.6,0,0,0,0,0,149.6ZERO,1,1,3,185.8,185.8,1,4,0,5,36,28,8,597.6,14,83,88.8,185.8,1,0,0,0,0,185.8ZERO,1,2,3,181.8,181.8,1,5,0,5,36,28,8,597.6,14,83,88.8,185.8,1,4,0,0,4,181.8ZERO,1,3,3,142,142,2,0,3,2,36,28,8,597.6,20,33.2,88.8,142,0,0,0,0,0,142ZERO,1,4,3,185.8,185.8,1,3,0,5,36,28,8,597.6,14,83,88.8,185.8,1,0,0,0,0,185.8ZERO,1,5,3,156.6,156.6,2,0,2,3,36,28,8,597.6,18,49.8,88.8,156.6,0,0,0,0,0,156.6ZERO,1,6,3,185.8,185.8,1,2,0,5,36,28,8,597.6,14,83,88.8,185.8,1,0,0,0,0,185.8ZERO,1,7,3,217.6,217.6,1,1,0,8,36,28,8,597.6,8,132.8,88.8,229.6,1,0,4,12,12,217.6ZERO,1,8,3,156.6,156.6,2,0,1,3,36,28,8,597.6,18,49.8,88.8,156.6,0,0,0,0,0,156.6ZERO,1,9,4,152,152,2,0,2,4,48,33,15,566.4,16,47.2,88.8,152,0,0,0,0,0,152ZERO,1,10,4,158.8,158.8,1,3,0,5,48,33,15,566.4,14,59,88.8,161.8,1,3,0,0,3,158.8ZERO,1,11,4,221.4,221.4,1,1,0,12,48,33,15,566.4,0,141.6,88.8,230.4,1,0,3,9,9,221.4ZERO,1,12,4,161.8,161.8,2,0,1,5,48,33,15,566.4,14,59,88.8,161.8,0,0,0,0,0,161.8ZERO,1,13,4,161.8,161.8,1,2,0,5,48,33,15,566.4,14,59,88.8,161.8,1,0,0,0,0,161.8ZERO,1,14,4,161.8,161.8,1,4,0,5,48,33,15,566.4,14,59,88.8,161.8,1,0,0,0,0,161.8ZERO,1,15,4,171.6,171.6,1,5,0,6,48,33,15,566.4,12,70.8,88.8,171.6,1,0,0,0,0,171.6ZERO,1,16,4,171.6,171.6,2,0,3,6,48,33,15,566.4,12,70.8,88.8,171.6,0,0,0,0,0,171.6ZERO,2,1,3,183.8,369.6,1,4,0,8,40,28,12,600,8,120,88.8,216.8,1,0,11,33,33,183.8ZERO,2,2,3,175.8,357.6,1,5,0,5,40,28,12,600,14,75,88.8,177.8,1,2,0,0,2,175.8ZERO,2,3,3,151.8,293.8,2,0,3,3,40,28,12,600,18,45,88.8,151.8,0,0,0,0,0,151.8ZERO,2,4,3,177.8,363.6,1,3,0,5,40,28,12,600,14,75,88.8,177.8,1,0,0,0,0,177.8ZERO,2,5,3,177.8,334.4,2,0,2,5,40,28,12,600,14,75,88.8,177.8,0,0,0,0,0,177.8ZERO,2,6,3,177.8,363.6,1,2,0,5,40,28,12,600,14,75,88.8,177.8,1,0,0,0,0,177.8ZERO,2,7,3,168.8,386.4,1,1,0,5,40,28,12,600,14,75,88.8,177.8,1,9,0,0,9,168.8ZERO,2,8,3,164.8,321.4,2,0,1,4,40,28,12,600,16,60,88.8,164.8,0,0,0,0,0,164.8ZERO,2,9,4,130.2,282.2,2,0,2,3,58,42,16,452.4,18,23.4,88.8,130.2,0,0,0,0,0,130.2ZERO,2,10,4,146.4,305.2,1,3,0,7,58,42,16,452.4,10,54.6,88.8,153.4,1,4,1,3,7,146.4ZERO,2,11,4,170.4,391.8,1,1,0,12,58,42,16,452.4,0,93.6,88.8,182.4,1,3,3,9,12,170.4ZERO,2,12,4,141.8,303.6,2,0,1,5,58,42,16,452.4,14,39,88.8,141.8,0,0,0,0,0,141.8ZERO,2,13,4,170.4,332.2,1,2,0,12,58,42,16,452.4,0,93.6,88.8,182.4,1,0,4,12,12,170.4ZERO,2,14,4,142.6,304.4,1,4,0,6,58,42,16,452.4,12,46.8,88.8,147.6,1,2,1,3,5,142.6ZERO,2,15,4,141.8,313.4,1,5,0,5,58,42,16,452.4,14,39,88.8,141.8,1,0,0,0,0,141.8ZERO,2,16,4,159.2,330.8,2,0,3,8,58,42,16,452.4,8,62.4,88.8,159.2,0,0,0,0,0,159.2ZERO,3,1,3,183.8,553.4,1,4,0,5,37,25,12,599.4,14,81,88.8,183.8,1,0,0,0,0,183.8ZERO,3,2,3,183.8,541.4,1,5,0,5,37,25,12,599.4,14,81,88.8,183.8,1,0,0,0,0,183.8ZERO,3,3,3,155.4,449.2,2,0,3,3,37,25,12,599.4,18,48.6,88.8,155.4,0,0,0,0,0,155.4ZERO,3,4,3,183.8,547.4,1,3,0,5,37,25,12,599.4,14,81,88.8,183.8,1,0,0,0,0,183.8ZERO,3,5,3,183.8,518.2,2,0,2,5,37,25,12,599.4,14,81,88.8,183.8,0,0,0,0,0,183.8ZERO,3,6,3,183.8,547.4,1,2,0,5,37,25,12,599.4,14,81,88.8,183.8,1,0,0,0,0,183.8ZERO,3,7,3,183.8,570.2,1,1,0,5,37,25,12,599.4,14,81,88.8,183.8,1,0,0,0,0,183.8ZERO,3,8,3,169.6,491,2,0,1,4,37,25,12,599.4,16,64.8,88.8,169.6,0,0,0,0,0,169.6ZERO,3,9,4,153.6,435.8,2,0,2,4,47,35,12,573.4,16,48.8,88.8,153.6,0,0,0,0,0,153.6ZERO,3,10,4,184.2,489.4,1,3,0,7,47,35,12,573.4,10,85.4,88.8,184.2,1,0,0,0,0,184.2ZERO,3,11,4,184.2,576,1,1,0,7,47,35,12,573.4,10,85.4,88.8,184.2,1,0,0,0,0,184.2ZERO,3,12,4,163.8,467.4,2,0,1,5,47,35,12,573.4,14,61,88.8,163.8,0,0,0,0,0,163.8ZERO,3,13,4,184.2,516.4,1,2,0,7,47,35,12,573.4,10,85.4,88.8,184.2,1,0,0,0,0,184.2ZERO,3,14,4,184.2,488.6,1,4,0,7,47,35,12,573.4,10,85.4,88.8,184.2,1,0,0,0,0,184.2ZERO,3,15,4,184.2,497.6,1,5,0,7,47,35,12,573.4,10,85.4,88.8,184.2,1,0,0,0,0,184.2ZERO,3,16,4,143.4,474.2,2,0,3,3,47,35,12,573.4,18,36.6,88.8,143.4,0,0,0,0,0,143.4ZERO,4,1,3,177.8,731.2,1,4,0,5,40,25,15,600,14,75,88.8,177.8,1,0,0,0,0,177.8ZERO,4,2,3,177.8,719.2,1,5,0,5,40,25,15,600,14,75,88.8,177.8,1,0,0,0,0,177.8ZERO,4,3,3,164.8,614,2,0,3,4,40,25,15,600,16,60,88.8,164.8,0,0,0,0,0,164.8ZERO,4,4,3,177.8,725.2,1,3,0,5,40,25,15,600,14,75,88.8,177.8,1,0,0,0,0,177.8ZERO,4,5,3,203.8,722,2,0,2,7,40,25,15,600,10,105,88.8,203.8,0,0,0,0,0,203.8ZERO,4,6,3,177.8,725.2,1,2,0,5,40,25,15,600,14,75,88.8,177.8,1,0,0,0,0,177.8ZERO,4,7,3,177.8,748,1,1,0,5,40,25,15,600,14,75,88.8,177.8,1,0,0,0,0,177.8ZERO,4,8,3,164.8,655.8,2,0,1,4,40,25,15,600,16,60,88.8,164.8,0,0,0,0,0,164.8ZERO,4,9,4,149.6,585.4,2,0,2,8,61,36,25,402.6,8,52.8,88.8,149.6,0,0,0,0,0,149.6ZERO,4,10,4,146.6,636,1,3,0,8,61,36,25,402.6,8,52.8,88.8,149.6,1,0,1,3,3,146.6ZERO,4,11,4,144,720,1,1,0,7,61,36,25,402.6,10,46.2,88.8,145,1,1,0,0,1,144ZERO,4,12,4,135.8,603.2,2,0,1,5,61,36,25,402.6,14,33,88.8,135.8,0,0,0,0,0,135.8ZERO,4,13,4,145,661.4,1,2,0,7,61,36,25,402.6,10,46.2,88.8,145,1,0,0,0,0,145ZERO,4,14,4,145,633.6,1,4,0,7,61,36,25,402.6,10,46.2,88.8,145,1,0,0,0,0,145ZERO,4,15,4,145,642.6,1,5,0,7,61,36,25,402.6,10,46.2,88.8,145,1,0,0,0,0,145ZERO,4,16,4,168,642.2,2,0,3,12,61,36,25,402.6,0,79.2,88.8,168,0,0,0,0,0,168ZERO,5,1,3,181.8,913,1,4,0,5,38,25,13,600.4,14,79,88.8,181.8,1,0,0,0,0,181.8ZERO,5,2,3,181.8,901,1,5,0,5,38,25,13,600.4,14,79,88.8,181.8,1,0,0,0,0,181.8ZERO,5,3,3,168,782,2,0,3,4,38,25,13,600.4,16,63.2,88.8,168,0,0,0,0,0,168ZERO,5,4,3,181.8,907,1,3,0,5,38,25,13,600.4,14,79,88.8,181.8,1,0,0,0,0,181.8ZERO,5,5,3,195.6,917.6,2,0,2,6,38,25,13,600.4,12,94.8,88.8,195.6,0,0,0,0,0,195.6ZERO,5,6,3,181.8,907,1,2,0,5,38,25,13,600.4,14,79,88.8,181.8,1,0,0,0,0,181.8ZERO,5,7,3,181.8,929.8,1,1,0,5,38,25,13,600.4,14,79,88.8,181.8,1,0,0,0,0,181.8ZERO,5,8,3,154.2,810,2,0,1,3,38,25,13,600.4,18,47.4,88.8,154.2,0,0,0,0,0,154.2ZERO,5,9,4,122,707.4,2,0,2,2,61,42,19,402.6,20,13.2,88.8,122,0,0,0,0,0,122ZERO,5,10,4,154.2,790.2,1,3,0,9,61,42,19,402.6,6,59.4,88.8,154.2,1,0,0,0,0,154.2ZERO,5,11,4,149.6,869.6,1,1,0,8,61,42,19,402.6,8,52.8,88.8,149.6,1,0,0,0,0,149.6ZERO,5,12,4,168,771.2,2,0,1,12,61,42,19,402.6,0,79.2,88.8,168,0,0,0,0,0,168ZERO,5,13,4,154.2,815.6,1,2,0,9,61,42,19,402.6,6,59.4,88.8,154.2,1,0,0,0,0,154.2ZERO,5,14,4,149.6,783.2,1,4,0,8,61,42,19,402.6,8,52.8,88.8,149.6,1,0,0,0,0,149.6ZERO,5,15,4,149.6,792.2,1,5,0,8,61,42,19,402.6,8,52.8,88.8,149.6,1,0,0,0,0,149.6ZERO,5,16,4,135.8,778,2,0,3,5,61,42,19,402.6,14,33,88.8,135.8,0,0,0,0,0,135.8ZERO,6,1,3,179.8,1092.8,1,4,0,5,39,25,14,600.6,14,77,88.8,179.8,1,0,0,0,0,179.8ZERO,6,2,3,179.8,1080.8,1,5,0,5,39,25,14,600.6,14,77,88.8,179.8,1,0,0,0,0,179.8ZERO,6,3,3,179.8,961.8,2,0,3,5,39,25,14,600.6,14,77,88.8,179.8,0,0,0,0,0,179.8ZERO,6,4,3,179.8,1086.8,1,3,0,5,39,25,14,600.6,14,77,88.8,179.8,1,0,0,0,0,179.8ZERO,6,5,3,179.8,1097.4,2,0,2,5,39,25,14,600.6,14,77,88.8,179.8,0,0,0,0,0,179.8ZERO,6,6,3,179.8,1086.8,1,2,0,5,39,25,14,600.6,14,77,88.8,179.8,1,0,0,0,0,179.8ZERO,6,7,3,179.8,1109.6,1,1,0,5,39,25,14,600.6,14,77,88.8,179.8,1,0,0,0,0,179.8ZERO,6,8,3,166.4,976.4,2,0,1,4,39,25,14,600.6,16,61.6,88.8,166.4,0,0,0,0,0,166.4ZERO,6,9,4,146.8,854.2,2,0,2,10,64,40,24,345.6,4,54,88.8,146.8,0,0,0,0,0,146.8ZERO,6,10,4,143.4,933.6,1,3,0,9,64,40,24,345.6,6,48.6,88.8,143.4,1,0,0,0,0,143.4ZERO,6,11,4,133.2,1002.8,1,1,0,6,64,40,24,345.6,12,32.4,88.8,133.2,1,0,0,0,0,133.2ZERO,6,12,4,129.8,901,2,0,1,5,64,40,24,345.6,14,27,88.8,129.8,0,0,0,0,0,129.8ZERO,6,13,4,140,955.6,1,2,0,8,64,40,24,345.6,8,43.2,88.8,140,1,0,0,0,0,140ZERO,6,14,4,143.4,926.6,1,4,0,9,64,40,24,345.6,6,48.6,88.8,143.4,1,0,0,0,0,143.4ZERO,6,15,4,140,932.2,1,5,0,8,64,40,24,345.6,8,43.2,88.8,140,1,0,0,0,0,140ZERO,6,16,4,143.4,921.4,2,0,3,9,64,40,24,345.6,6,48.6,88.8,143.4,0,0,0,0,0,143.4ZERO,7,1,3,173.8,1266.6,1,4,0,5,42,25,17,596.4,14,71,88.8,173.8,1,0,0,0,0,173.8ZERO,7,2,3,173.8,1254.6,1,5,0,5,42,25,17,596.4,14,71,88.8,173.8,1,0,0,0,0,173.8ZERO,7,3,3,186,1147.8,2,0,3,6,42,25,17,596.4,12,85.2,88.8,186,0,0,0,0,0,186ZERO,7,4,3,173.8,1260.6,1,3,0,5,42,25,17,596.4,14,71,88.8,173.8,1,0,0,0,0,173.8ZERO,7,5,3,198.2,1295.6,2,0,2,7,42,25,17,596.4,10,99.4,88.8,198.2,0,0,0,0,0,198.2ZERO,7,6,3,173.8,1260.6,1,2,0,5,42,25,17,596.4,14,71,88.8,173.8,1,0,0,0,0,173.8ZERO,7,7,3,173.8,1283.4,1,1,0,5,42,25,17,596.4,14,71,88.8,173.8,1,0,0,0,0,173.8ZERO,7,8,3,161.6,1138,2,0,1,4,42,25,17,596.4,16,56.8,88.8,161.6,0,0,0,0,0,161.6ZERO,7,9,4,132.4,986.6,2,0,2,2,48,35,13,566.4,20,23.6,88.8,132.4,0,0,0,0,0,132.4ZERO,7,10,4,181.4,1115,1,3,0,7,48,35,13,566.4,10,82.6,88.8,181.4,1,0,0,0,0,181.4ZERO,7,11,4,181.4,1184.2,1,1,0,7,48,35,13,566.4,10,82.6,88.8,181.4,1,0,0,0,0,181.4ZERO,7,12,4,161.8,1062.8,2,0,1,5,48,35,13,566.4,14,59,88.8,161.8,0,0,0,0,0,161.8ZERO,7,13,4,181.4,1137,1,2,0,7,48,35,13,566.4,10,82.6,88.8,181.4,1,0,0,0,0,181.4ZERO,7,14,4,181.4,1108,1,4,0,7,48,35,13,566.4,10,82.6,88.8,181.4,1,0,0,0,0,181.4ZERO,7,15,4,181.4,1113.6,1,5,0,7,48,35,13,566.4,10,82.6,88.8,181.4,1,0,0,0,0,181.4ZERO,7,16,4,171.6,1093,2,0,3,6,48,35,13,566.4,12,70.8,88.8,171.6,0,0,0,0,0,171.6ZERO,8,1,3,179.8,1446.4,1,4,0,5,39,25,14,600.6,14,77,88.8,179.8,1,0,0,0,0,179.8ZERO,8,2,3,179.8,1434.4,1,5,0,5,39,25,14,600.6,14,77,88.8,179.8,1,0,0,0,0,179.8ZERO,8,3,3,193.2,1341,2,0,3,6,39,25,14,600.6,12,92.4,88.8,193.2,0,0,0,0,0,193.2ZERO,8,4,3,179.8,1440.4,1,3,0,5,39,25,14,600.6,14,77,88.8,179.8,1,0,0,0,0,179.8ZERO,8,5,3,179.8,1475.4,2,0,2,5,39,25,14,600.6,14,77,88.8,179.8,0,0,0,0,0,179.8ZERO,8,6,3,179.8,1440.4,1,2,0,5,39,25,14,600.6,14,77,88.8,179.8,1,0,0,0,0,179.8ZERO,8,7,3,179.8,1463.2,1,1,0,5,39,25,14,600.6,14,77,88.8,179.8,1,0,0,0,0,179.8ZERO,8,8,3,153,1291,2,0,1,3,39,25,14,600.6,18,46.2,88.8,153,0,0,0,0,0,153ZERO,8,9,4,121,1107.6,2,0,2,1,52,36,16,530.4,22,10.2,88.8,121,0,0,0,0,0,121ZERO,8,10,4,170.2,1285.2,1,3,0,7,52,36,16,530.4,10,71.4,88.8,170.2,1,0,0,0,0,170.2ZERO,8,11,4,170.2,1354.4,1,1,0,7,52,36,16,530.4,10,71.4,88.8,170.2,1,0,0,0,0,170.2ZERO,8,12,4,153.8,1216.6,2,0,1,5,52,36,16,530.4,14,51,88.8,153.8,0,0,0,0,0,153.8ZERO,8,13,4,170.2,1307.2,1,2,0,7,52,36,16,530.4,10,71.4,88.8,170.2,1,0,0,0,0,170.2ZERO,8,14,4,178.4,1286.4,1,4,0,8,52,36,16,530.4,8,81.6,88.8,178.4,1,0,0,0,0,178.4ZERO,8,15,4,170.2,1283.8,1,5,0,7,52,36,16,530.4,10,71.4,88.8,170.2,1,0,0,0,0,170.2ZERO,8,16,4,194.8,1287.8,2,0,3,10,52,36,16,530.4,4,102,88.8,194.8,0,0,0,0,0,194.8ZERO,9,1,3,163.8,1610.2,1,4,0,5,47,25,22,573.4,14,61,88.8,163.8,1,0,0,0,0,163.8ZERO,9,2,3,163.8,1598.2,1,5,0,5,47,25,22,573.4,14,61,88.8,163.8,1,0,0,0,0,163.8ZERO,9,3,3,184.2,1525.2,2,0,3,7,47,25,22,573.4,10,85.4,88.8,184.2,0,0,0,0,0,184.2ZERO,9,4,3,163.8,1604.2,1,3,0,5,47,25,22,573.4,14,61,88.8,163.8,1,0,0,0,0,163.8ZERO,9,5,3,214.8,1690.2,2,0,2,10,47,25,22,573.4,4,122,88.8,214.8,0,0,0,0,0,214.8ZERO,9,6,3,163.8,1604.2,1,2,0,5,47,25,22,573.4,14,61,88.8,163.8,1,0,0,0,0,163.8ZERO,9,7,3,163.8,1627,1,1,0,5,47,25,22,573.4,14,61,88.8,163.8,1,0,0,0,0,163.8ZERO,9,8,3,163.8,1454.8,2,0,1,5,47,25,22,573.4,14,61,88.8,163.8,0,0,0,0,0,163.8ZERO,9,9,4,168,1275.6,2,0,2,12,61,33,28,402.6,0,79.2,88.8,168,0,0,0,0,0,168ZERO,9,10,4,145,1430.2,1,3,0,7,61,33,28,402.6,10,46.2,88.8,145,1,0,0,0,0,145ZERO,9,11,4,145,1499.4,1,1,0,7,61,33,28,402.6,10,46.2,88.8,145,1,0,0,0,0,145ZERO,9,12,4,140.4,1357,2,0,1,6,61,33,28,402.6,12,39.6,88.8,140.4,0,0,0,0,0,140.4ZERO,9,13,4,140.4,1447.6,1,2,0,6,61,33,28,402.6,12,39.6,88.8,140.4,1,0,0,0,0,140.4ZERO,9,14,4,140.4,1426.8,1,4,0,6,61,33,28,402.6,12,39.6,88.8,140.4,1,0,0,0,0,140.4ZERO,9,15,4,145,1428.8,1,5,0,7,61,33,28,402.6,10,46.2,88.8,145,1,0,0,0,0,145ZERO,9,16,4,158.8,1446.6,2,0,3,10,61,33,28,402.6,4,66,88.8,158.8,0,0,0,0,0,158.8ZERO,10,1,3,177.8,1788,1,4,0,5,40,25,15,600,14,75,88.8,177.8,1,0,0,0,0,177.8ZERO,10,2,3,177.8,1776,1,5,0,5,40,25,15,600,14,75,88.8,177.8,1,0,0,0,0,177.8ZERO,10,3,3,203.8,1729,2,0,3,7,40,25,15,600,10,105,88.8,203.8,0,0,0,0,0,203.8ZERO,10,4,3,177.8,1782,1,3,0,5,40,25,15,600,14,75,88.8,177.8,1,0,0,0,0,177.8ZERO,10,5,3,164.8,1855,2,0,2,4,40,25,15,600,16,60,88.8,164.8,0,0,0,0,0,164.8ZERO,10,6,3,177.8,1782,1,2,0,5,40,25,15,600,14,75,88.8,177.8,1,0,0,0,0,177.8ZERO,10,7,3,177.8,1804.8,1,1,0,5,40,25,15,600,14,75,88.8,177.8,1,0,0,0,0,177.8ZERO,10,8,3,164.8,1619.6,2,0,1,4,40,25,15,600,16,60,88.8,164.8,0,0,0,0,0,164.8ZERO,10,9,4,147,1422.6,2,0,2,3,44,35,9,589.6,18,40.2,88.8,147,0,0,0,0,0,147ZERO,10,10,4,204,1634.2,1,3,0,8,44,35,9,589.6,8,107.2,88.8,204,1,0,0,0,0,204ZERO,10,11,4,192.6,1692,1,1,0,7,44,35,9,589.6,10,93.8,88.8,192.6,1,0,0,0,0,192.6ZERO,10,12,4,169.8,1526.8,2,0,1,5,44,35,9,589.6,14,67,88.8,169.8,0,0,0,0,0,169.8ZERO,10,13,4,181.2,1628.8,1,2,0,6,44,35,9,589.6,12,80.4,88.8,181.2,1,0,0,0,0,181.2ZERO,10,14,4,204,1630.8,1,4,0,8,44,35,9,589.6,8,107.2,88.8,204,1,0,0,0,0,204ZERO,10,15,4,181.2,1610,1,5,0,6,44,35,9,589.6,12,80.4,88.8,181.2,1,0,0,0,0,181.2ZERO,10,16,4,124.2,1570.8,2,0,3,1,44,35,9,589.6,22,13.4,88.8,124.2,0,0,0,0,0,124.2ZERO,11,1,3,173.8,1961.8,1,4,0,5,42,25,17,596.4,14,71,88.8,173.8,1,0,0,0,0,173.8ZERO,11,2,3,173.8,1949.8,1,5,0,5,42,25,17,596.4,14,71,88.8,173.8,1,0,0,0,0,173.8ZERO,11,3,3,198.2,1927.2,2,0,3,7,42,25,17,596.4,10,99.4,88.8,198.2,0,0,0,0,0,198.2ZERO,11,4,3,173.8,1955.8,1,3,0,5,42,25,17,596.4,14,71,88.8,173.8,1,0,0,0,0,173.8ZERO,11,5,3,186,2041,2,0,2,6,42,25,17,596.4,12,85.2,88.8,186,0,0,0,0,0,186ZERO,11,6,3,173.8,1955.8,1,2,0,5,42,25,17,596.4,14,71,88.8,173.8,1,0,0,0,0,173.8ZERO,11,7,3,173.8,1978.6,1,1,0,5,42,25,17,596.4,14,71,88.8,173.8,1,0,0,0,0,173.8ZERO,11,8,3,161.6,1781.2,2,0,1,4,42,25,17,596.4,16,56.8,88.8,161.6,0,0,0,0,0,161.6ZERO,11,9,4,148.8,1571.4,2,0,2,4,50,30,20,550,16,44,88.8,148.8,0,0,0,0,0,148.8ZERO,11,10,4,166.8,1801,1,3,0,6,50,30,20,550,12,66,88.8,166.8,1,0,0,0,0,166.8ZERO,11,11,4,166.8,1858.8,1,1,0,6,50,30,20,550,12,66,88.8,166.8,1,0,0,0,0,166.8ZERO,11,12,4,157.8,1684.6,2,0,1,5,50,30,20,550,14,55,88.8,157.8,0,0,0,0,0,157.8ZERO,11,13,4,166.8,1795.6,1,2,0,6,50,30,20,550,12,66,88.8,166.8,1,0,0,0,0,166.8ZERO,11,14,4,166.8,1797.6,1,4,0,6,50,30,20,550,12,66,88.8,166.8,1,0,0,0,0,166.8ZERO,11,15,4,166.8,1776.8,1,5,0,6,50,30,20,550,12,66,88.8,166.8,1,0,0,0,0,166.8ZERO,11,16,4,211.8,1782.6,2,0,3,11,50,30,20,550,2,121,88.8,211.8,0,0,0,0,0,211.8ZERO,12,1,3,171.8,2133.6,1,4,0,5,43,25,18,593.4,14,69,88.8,171.8,1,0,0,0,0,171.8ZERO,12,2,3,171.8,2121.6,1,5,0,5,43,25,18,593.4,14,69,88.8,171.8,1,0,0,0,0,171.8ZERO,12,3,3,183.6,2110.8,2,0,3,6,43,25,18,593.4,12,82.8,88.8,183.6,0,0,0,0,0,183.6ZERO,12,4,3,171.8,2127.6,1,3,0,5,43,25,18,593.4,14,69,88.8,171.8,1,0,0,0,0,171.8ZERO,12,5,3,195.4,2236.4,2,0,2,7,43,25,18,593.4,10,96.6,88.8,195.4,0,0,0,0,0,195.4ZERO,12,6,3,171.8,2127.6,1,2,0,5,43,25,18,593.4,14,69,88.8,171.8,1,0,0,0,0,171.8ZERO,12,7,3,171.8,2150.4,1,1,0,5,43,25,18,593.4,14,69,88.8,171.8,1,0,0,0,0,171.8ZERO,12,8,3,171.8,1953,2,0,1,5,43,25,18,593.4,14,69,88.8,171.8,0,0,0,0,0,171.8ZERO,12,9,4,151.8,1723.2,2,0,2,5,53,31,22,519.4,14,49,88.8,151.8,0,0,0,0,0,151.8ZERO,12,10,4,159.6,1960.6,1,3,0,6,53,31,22,519.4,12,58.8,88.8,159.6,1,0,0,0,0,159.6ZERO,12,11,4,159.6,2018.4,1,1,0,6,53,31,22,519.4,12,58.8,88.8,159.6,1,0,0,0,0,159.6ZERO,12,12,4,151.8,1836.4,2,0,1,5,53,31,22,519.4,14,49,88.8,151.8,0,0,0,0,0,151.8ZERO,12,13,4,159.6,1955.2,1,2,0,6,53,31,22,519.4,12,58.8,88.8,159.6,1,0,0,0,0,159.6ZERO,12,14,4,167.4,1965,1,4,0,7,53,31,22,519.4,10,68.6,88.8,167.4,1,0,0,0,0,167.4ZERO,12,15,4,159.6,1936.4,1,5,0,6,53,31,22,519.4,12,58.8,88.8,159.6,1,0,0,0,0,159.6ZERO,12,16,4,206.4,1989,2,0,3,12,53,31,22,519.4,0,117.6,88.8,206.4,0,0,0,0,0,206.4ZERO,13,1,3,171.8,2305.4,1,4,0,5,43,25,18,593.4,14,69,88.8,171.8,1,0,0,0,0,171.8ZERO,13,2,3,171.8,2293.4,1,5,0,5,43,25,18,593.4,14,69,88.8,171.8,1,0,0,0,0,171.8ZERO,13,3,3,183.6,2294.4,2,0,3,6,43,25,18,593.4,12,82.8,88.8,183.6,0,0,0,0,0,183.6ZERO,13,4,3,171.8,2299.4,1,3,0,5,43,25,18,593.4,14,69,88.8,171.8,1,0,0,0,0,171.8ZERO,13,5,3,195.4,2431.8,2,0,2,7,43,25,18,593.4,10,96.6,88.8,195.4,0,0,0,0,0,195.4ZERO,13,6,3,171.8,2299.4,1,2,0,5,43,25,18,593.4,14,69,88.8,171.8,1,0,0,0,0,171.8ZERO,13,7,3,171.8,2322.2,1,1,0,5,43,25,18,593.4,14,69,88.8,171.8,1,0,0,0,0,171.8ZERO,13,8,3,171.8,2124.8,2,0,1,5,43,25,18,593.4,14,69,88.8,171.8,0,0,0,0,0,171.8ZERO,13,9,4,123.4,1846.6,2,0,2,1,46,30,16,579.6,22,12.6,88.8,123.4,0,0,0,0,0,123.4ZERO,13,10,4,176.4,2137,1,3,0,6,46,30,16,579.6,12,75.6,88.8,176.4,1,0,0,0,0,176.4ZERO,13,11,4,176.4,2194.8,1,1,0,6,46,30,16,579.6,12,75.6,88.8,176.4,1,0,0,0,0,176.4ZERO,13,12,4,165.8,2002.2,2,0,1,5,46,30,16,579.6,14,63,88.8,165.8,0,0,0,0,0,165.8ZERO,13,13,4,176.4,2131.6,1,2,0,6,46,30,16,579.6,12,75.6,88.8,176.4,1,0,0,0,0,176.4ZERO,13,14,4,176.4,2141.4,1,4,0,6,46,30,16,579.6,12,75.6,88.8,176.4,1,0,0,0,0,176.4ZERO,13,15,4,176.4,2112.8,1,5,0,6,46,30,16,579.6,12,75.6,88.8,176.4,1,0,0,0,0,176.4ZERO,13,16,4,218.8,2207.8,2,0,3,10,46,30,16,579.6,4,126,88.8,218.8,0,0,0,0,0,218.8ZERO,14,1,3,175.8,2481.2,1,4,0,5,41,25,16,598.6,14,73,88.8,175.8,1,0,0,0,0,175.8ZERO,14,2,3,175.8,2469.2,1,5,0,5,41,25,16,598.6,14,73,88.8,175.8,1,0,0,0,0,175.8ZERO,14,3,3,188.4,2482.8,2,0,3,6,41,25,16,598.6,12,87.6,88.8,188.4,0,0,0,0,0,188.4ZERO,14,4,3,175.8,2475.2,1,3,0,5,41,25,16,598.6,14,73,88.8,175.8,1,0,0,0,0,175.8ZERO,14,5,3,175.8,2607.6,2,0,2,5,41,25,16,598.6,14,73,88.8,175.8,0,0,0,0,0,175.8ZERO,14,6,3,175.8,2475.2,1,2,0,5,41,25,16,598.6,14,73,88.8,175.8,1,0,0,0,0,175.8ZERO,14,7,3,175.8,2498,1,1,0,5,41,25,16,598.6,14,73,88.8,175.8,1,0,0,0,0,175.8ZERO,14,8,3,175.8,2300.6,2,0,1,5,41,25,16,598.6,14,73,88.8,175.8,0,0,0,0,0,175.8ZERO,14,9,4,112.8,1959.4,2,0,2,0,49,32,17,558.6,24,0,88.8,112.8,0,0,0,0,0,112.8ZERO,14,10,4,178.6,2315.6,1,3,0,7,49,32,17,558.6,10,79.8,88.8,178.6,1,0,0,0,0,178.6ZERO,14,11,4,188,2382.8,1,1,0,8,49,32,17,558.6,8,91.2,88.8,188,1,0,0,0,0,188ZERO,14,12,4,159.8,2162,2,0,1,5,49,32,17,558.6,14,57,88.8,159.8,0,0,0,0,0,159.8ZERO,14,13,4,159.8,2291.4,1,2,0,5,49,32,17,558.6,14,57,88.8,159.8,1,0,0,0,0,159.8ZERO,14,14,4,169.2,2310.6,1,4,0,6,49,32,17,558.6,12,68.4,88.8,169.2,1,0,0,0,0,169.2ZERO,14,15,4,169.2,2282,1,5,0,6,49,32,17,558.6,12,68.4,88.8,169.2,1,0,0,0,0,169.2ZERO,14,16,4,225.6,2433.4,2,0,3,12,49,32,17,558.6,0,136.8,88.8,225.6,0,0,0,0,0,225.6ZERO,15,1,3,169.8,2651,1,4,0,5,44,25,19,589.6,14,67,88.8,169.8,1,0,0,0,0,169.8ZERO,15,2,3,169.8,2639,1,5,0,5,44,25,19,589.6,14,67,88.8,169.8,1,0,0,0,0,169.8ZERO,15,3,3,192.6,2675.4,2,0,3,7,44,25,19,589.6,10,93.8,88.8,192.6,0,0,0,0,0,192.6ZERO,15,4,3,169.8,2645,1,3,0,5,44,25,19,589.6,14,67,88.8,169.8,1,0,0,0,0,169.8ZERO,15,5,3,192.6,2800.2,2,0,2,7,44,25,19,589.6,10,93.8,88.8,192.6,0,0,0,0,0,192.6ZERO,15,6,3,169.8,2645,1,2,0,5,44,25,19,589.6,14,67,88.8,169.8,1,0,0,0,0,169.8ZERO,15,7,3,169.8,2667.8,1,1,0,5,44,25,19,589.6,14,67,88.8,169.8,1,0,0,0,0,169.8ZERO,15,8,3,169.8,2470.4,2,0,1,5,44,25,19,589.6,14,67,88.8,169.8,0,0,0,0,0,169.8ZERO,15,9,4,167.8,2127.2,2,0,2,11,60,32,28,420,2,77,88.8,167.8,0,0,0,0,0,167.8ZERO,15,10,4,142.8,2458.4,1,3,0,6,60,32,28,420,12,42,88.8,142.8,1,0,0,0,0,142.8ZERO,15,11,4,142.8,2525.6,1,1,0,6,60,32,28,420,12,42,88.8,142.8,1,0,0,0,0,142.8ZERO,15,12,4,137.8,2299.8,2,0,1,5,60,32,28,420,14,35,88.8,137.8,0,0,0,0,0,137.8ZERO,15,13,4,147.8,2439.2,1,2,0,7,60,32,28,420,10,49,88.8,147.8,1,0,0,0,0,147.8ZERO,15,14,4,147.8,2458.4,1,4,0,7,60,32,28,420,10,49,88.8,147.8,1,0,0,0,0,147.8ZERO,15,15,4,142.8,2424.8,1,5,0,6,60,32,28,420,12,42,88.8,142.8,1,0,0,0,0,142.8ZERO,15,16,4,172.8,2606.2,2,0,3,12,60,32,28,420,0,84,88.8,172.8,0,0,0,0,0,172.8PARTIAL,1,1,1,136.4,136.4,2,0,2,2,43,30,13,593.4,20,27.6,88.8,136.4,1,0,0,0,0,136.4PARTIAL,1,2,1,183.6,183.6,1,5,0,6,43,30,13,593.4,12,82.8,88.8,183.6,1,0,0,0,0,183.6PARTIAL,1,3,1,160,160,2,0,1,4,43,30,13,593.4,16,55.2,88.8,160,0,0,0,0,0,160PARTIAL,1,4,1,195.4,195.4,2,0,3,7,43,30,13,593.4,10,96.6,88.8,195.4,0,0,0,0,0,195.4PARTIAL,1,5,1,183.6,183.6,1,2,0,6,43,30,13,593.4,12,82.8,88.8,183.6,1,0,0,0,0,183.6PARTIAL,1,6,1,183.6,183.6,1,4,0,6,43,30,13,593.4,12,82.8,88.8,183.6,1,0,0,0,0,183.6PARTIAL,1,7,1,183.6,183.6,1,1,0,6,43,30,13,593.4,12,82.8,88.8,183.6,1,0,0,0,0,183.6PARTIAL,1,8,1,183.6,183.6,1,3,0,6,43,30,13,593.4,12,82.8,88.8,183.6,1,0,0,0,0,183.6PARTIAL,1,9,2,153.8,153.8,1,3,0,4,45,24,21,585,16,52,88.8,156.8,1,0,1,3,3,153.8PARTIAL,1,10,2,167.8,167.8,1,1,0,5,45,24,21,585,14,65,88.8,167.8,1,0,0,0,0,167.8PARTIAL,1,11,2,178.8,178.8,2,0,2,6,45,24,21,585,12,78,88.8,178.8,0,0,0,0,0,178.8PARTIAL,1,12,2,167.8,167.8,1,5,0,5,45,24,21,585,14,65,88.8,167.8,1,0,0,0,0,167.8PARTIAL,1,13,2,166.8,166.8,1,4,0,5,45,24,21,585,14,65,88.8,167.8,1,1,0,0,1,166.8PARTIAL,1,14,2,222.8,222.8,2,0,3,10,45,24,21,585,4,130,88.8,222.8,0,0,0,0,0,222.8PARTIAL,1,15,2,167.8,167.8,2,0,1,5,45,24,21,585,14,65,88.8,167.8,1,0,0,0,0,167.8PARTIAL,1,16,2,167.8,167.8,1,2,0,5,45,24,21,585,14,65,88.8,167.8,1,0,0,0,0,167.8PARTIAL,2,1,1,161.8,298.2,2,0,2,5,48,32,16,566.4,14,59,88.8,161.8,1,0,0,0,0,161.8PARTIAL,2,2,1,171.6,355.2,1,5,0,6,48,32,16,566.4,12,70.8,88.8,171.6,1,0,0,0,0,171.6PARTIAL,2,3,1,142.2,302.2,2,0,1,3,48,32,16,566.4,18,35.4,88.8,142.2,0,0,0,0,0,142.2PARTIAL,2,4,1,191.2,386.6,2,0,3,8,48,32,16,566.4,8,94.4,88.8,191.2,0,0,0,0,0,191.2PARTIAL,2,5,1,171.6,355.2,1,2,0,6,48,32,16,566.4,12,70.8,88.8,171.6,1,0,0,0,0,171.6PARTIAL,2,6,1,185.2,368.8,1,4,0,8,48,32,16,566.4,8,94.4,88.8,191.2,1,0,2,6,6,185.2PARTIAL,2,7,1,171.6,355.2,1,1,0,6,48,32,16,566.4,12,70.8,88.8,171.6,1,0,0,0,0,171.6PARTIAL,2,8,1,169.6,353.2,1,3,0,6,48,32,16,566.4,12,70.8,88.8,171.6,1,2,0,0,2,169.6PARTIAL,2,9,2,159.2,313,1,3,0,9,46,31,15,579.6,6,113.4,88.8,208.2,1,1,16,48,49,159.2PARTIAL,2,10,2,135.8,303.6,1,1,0,5,46,31,15,579.6,14,63,88.8,165.8,1,30,0,0,30,135.8PARTIAL,2,11,2,152.4,331.2,2,0,2,6,46,31,15,579.6,12,75.6,88.8,176.4,1,0,8,24,24,152.4PARTIAL,2,12,2,165.8,333.6,1,5,0,5,46,31,15,579.6,14,63,88.8,165.8,1,0,0,0,0,165.8PARTIAL,2,13,2,154,320.8,1,4,0,7,46,31,15,579.6,10,88.2,88.8,187,1,0,11,33,33,154PARTIAL,2,14,2,155.2,378,2,0,3,4,46,31,15,579.6,16,50.4,88.8,155.2,0,0,0,0,0,155.2PARTIAL,2,15,2,165.8,333.6,2,0,1,5,46,31,15,579.6,14,63,88.8,165.8,0,0,0,0,0,165.8PARTIAL,2,16,2,161.8,329.6,1,2,0,5,46,31,15,579.6,14,63,88.8,165.8,1,4,0,0,4,161.8PARTIAL,3,1,1,203.8,502,2,0,2,7,40,25,15,600,10,105,88.8,203.8,1,0,0,0,0,203.8PARTIAL,3,2,1,177.8,533,1,5,0,5,40,25,15,600,14,75,88.8,177.8,1,0,0,0,0,177.8PARTIAL,3,3,1,151.8,454,2,0,1,3,40,25,15,600,18,45,88.8,151.8,0,0,0,0,0,151.8PARTIAL,3,4,1,177.8,564.4,2,0,3,5,40,25,15,600,14,75,88.8,177.8,0,0,0,0,0,177.8PARTIAL,3,5,1,177.8,533,1,2,0,5,40,25,15,600,14,75,88.8,177.8,1,0,0,0,0,177.8PARTIAL,3,6,1,177.8,546.6,1,4,0,5,40,25,15,600,14,75,88.8,177.8,1,0,0,0,0,177.8PARTIAL,3,7,1,177.8,533,1,1,0,5,40,25,15,600,14,75,88.8,177.8,1,0,0,0,0,177.8PARTIAL,3,8,1,177.8,531,1,3,0,5,40,25,15,600,14,75,88.8,177.8,1,0,0,0,0,177.8PARTIAL,3,9,2,130.4,443.4,1,3,0,6,56,31,25,481.6,12,51.6,88.8,152.4,1,22,0,0,22,130.4PARTIAL,3,10,2,149,452.6,1,1,0,7,56,31,25,481.6,10,60.2,88.8,159,1,10,0,0,10,149PARTIAL,3,11,2,192,523.2,2,0,2,12,56,31,25,481.6,0,103.2,88.8,192,0,0,0,0,0,192PARTIAL,3,12,2,157,490.6,1,5,0,7,56,31,25,481.6,10,60.2,88.8,159,1,2,0,0,2,157PARTIAL,3,13,2,158,478.8,1,4,0,7,56,31,25,481.6,10,60.2,88.8,159,1,1,0,0,1,158PARTIAL,3,14,2,60.6,438.6,2,0,3,8,56,31,25,481.6,8,68.8,88.8,165.6,1,0,35,105,105,60.6PARTIAL,3,15,2,145.8,479.4,2,0,1,5,56,31,25,481.6,14,43,88.8,145.8,0,0,0,0,0,145.8PARTIAL,3,16,2,139.2,468.8,1,2,0,4,56,31,25,481.6,16,34.4,88.8,139.2,1,0,0,0,0,139.2PARTIAL,4,1,1,167.6,669.6,2,0,2,8,46,28,18,579.6,8,100.8,88.8,197.6,1,0,10,30,30,167.6PARTIAL,4,2,1,165.8,698.8,1,5,0,5,46,28,18,579.6,14,63,88.8,165.8,1,0,0,0,0,165.8PARTIAL,4,3,1,134,588,2,0,1,2,46,28,18,579.6,20,25.2,88.8,134,0,0,0,0,0,134PARTIAL,4,4,1,197.6,762,2,0,3,8,46,28,18,579.6,8,100.8,88.8,197.6,0,0,0,0,0,197.6PARTIAL,4,5,1,165.8,698.8,1,2,0,5,46,28,18,579.6,14,63,88.8,165.8,1,0,0,0,0,165.8PARTIAL,4,6,1,187,733.6,1,4,0,7,46,28,18,579.6,10,88.2,88.8,187,1,0,0,0,0,187PARTIAL,4,7,1,176.4,709.4,1,1,0,6,46,28,18,579.6,12,75.6,88.8,176.4,1,0,0,0,0,176.4PARTIAL,4,8,1,155.8,686.8,1,3,0,5,46,28,18,579.6,14,63,88.8,165.8,1,10,0,0,10,155.8PARTIAL,4,9,2,128.8,572.2,1,3,0,10,56,37,19,481.6,4,86,88.8,178.8,1,50,0,0,50,128.8PARTIAL,4,10,2,144,596.6,1,1,0,7,56,37,19,481.6,10,60.2,88.8,159,1,15,0,0,15,144PARTIAL,4,11,2,0,523.2,2,0,2,12,56,37,19,481.6,0,103.2,88.8,192,1,0,67,201,201,-9PARTIAL,4,12,2,157,647.6,1,5,0,7,56,37,19,481.6,10,60.2,88.8,159,1,2,0,0,2,157PARTIAL,4,13,2,165.6,644.4,1,4,0,8,56,37,19,481.6,8,68.8,88.8,165.6,1,0,0,0,0,165.6PARTIAL,4,14,2,126,564.6,2,0,3,2,56,37,19,481.6,20,17.2,88.8,126,0,0,0,0,0,126PARTIAL,4,15,2,145.8,625.2,2,0,1,5,56,37,19,481.6,14,43,88.8,145.8,0,0,0,0,0,145.8PARTIAL,4,16,2,145.8,614.6,1,2,0,5,56,37,19,481.6,14,43,88.8,145.8,1,0,0,0,0,145.8PARTIAL,5,1,1,167.8,837.4,2,0,2,5,45,27,18,585,14,65,88.8,167.8,0,0,0,0,0,167.8PARTIAL,5,2,1,167.8,866.6,1,5,0,5,45,27,18,585,14,65,88.8,167.8,1,0,0,0,0,167.8PARTIAL,5,3,1,156.8,744.8,2,0,1,4,45,27,18,585,16,52,88.8,156.8,0,0,0,0,0,156.8PARTIAL,5,4,1,175.8,937.8,2,0,3,9,45,27,18,585,6,117,88.8,211.8,1,0,12,36,36,175.8PARTIAL,5,5,1,164.8,863.6,1,2,0,5,45,27,18,585,14,65,88.8,167.8,1,3,0,0,3,164.8PARTIAL,5,6,1,167.8,901.4,1,4,0,5,45,27,18,585,14,65,88.8,167.8,1,0,0,0,0,167.8PARTIAL,5,7,1,167.8,877.2,1,1,0,5,45,27,18,585,14,65,88.8,167.8,1,0,0,0,0,167.8PARTIAL,5,8,1,176.8,863.6,1,3,0,7,45,27,18,585,10,91,88.8,189.8,1,10,1,3,13,176.8PARTIAL,5,9,2,130.2,702.4,1,3,0,9,61,37,24,402.6,6,59.4,88.8,154.2,1,0,8,24,24,130.2PARTIAL,5,10,2,135,731.6,1,1,0,7,61,37,24,402.6,10,46.2,88.8,145,1,10,0,0,10,135PARTIAL,5,11,2,58.8,582,2,0,2,0,61,37,24,402.6,24,0,88.8,112.8,1,0,18,54,54,58.8PARTIAL,5,12,2,140,787.6,1,5,0,7,61,37,24,402.6,10,46.2,88.8,145,1,5,0,0,5,140PARTIAL,5,13,2,144,788.4,1,4,0,7,61,37,24,402.6,10,46.2,88.8,145,1,1,0,0,1,144PARTIAL,5,14,2,168,732.6,2,0,3,12,61,37,24,402.6,0,79.2,88.8,168,0,0,0,0,0,168PARTIAL,5,15,2,168,793.2,2,0,1,12,61,37,24,402.6,0,79.2,88.8,168,0,0,0,0,0,168PARTIAL,5,16,2,135,749.6,1,2,0,7,61,37,24,402.6,10,46.2,88.8,145,1,10,0,0,10,135PARTIAL,6,1,1,147.6,985,2,0,2,6,58,36,22,452.4,12,46.8,88.8,147.6,1,0,0,0,0,147.6PARTIAL,6,2,1,153.4,1020,1,5,0,7,58,36,22,452.4,10,54.6,88.8,153.4,1,0,0,0,0,153.4PARTIAL,6,3,1,147.6,892.4,2,0,1,6,58,36,22,452.4,12,46.8,88.8,147.6,0,0,0,0,0,147.6PARTIAL,6,4,1,170.8,1108.6,2,0,3,10,58,36,22,452.4,4,78,88.8,170.8,0,0,0,0,0,170.8PARTIAL,6,5,1,141.8,1005.4,1,2,0,5,58,36,22,452.4,14,39,88.8,141.8,1,0,0,0,0,141.8PARTIAL,6,6,1,153.4,1054.8,1,4,0,7,58,36,22,452.4,10,54.6,88.8,153.4,1,0,0,0,0,153.4PARTIAL,6,7,1,167.4,1044.6,1,1,0,12,58,36,22,452.4,0,93.6,88.8,182.4,1,0,5,15,15,167.4PARTIAL,6,8,1,136.8,1000.4,1,3,0,5,58,36,22,452.4,14,39,88.8,141.8,1,5,0,0,5,136.8PARTIAL,6,9,2,110.2,812.6,1,3,0,6,49,33,16,558.6,12,68.4,88.8,169.2,1,59,0,0,59,110.2PARTIAL,6,10,2,0,731.6,1,1,0,7,49,33,16,558.6,10,79.8,88.8,178.6,1,10,59,177,187,-8.4PARTIAL,6,11,2,122.2,704.2,2,0,2,1,49,33,16,558.6,22,11.4,88.8,122.2,0,0,0,0,0,122.2PARTIAL,6,12,2,176.6,964.2,1,5,0,7,49,33,16,558.6,10,79.8,88.8,178.6,1,2,0,0,2,176.6PARTIAL,6,13,2,178.6,967,1,4,0,7,49,33,16,558.6,10,79.8,88.8,178.6,1,0,0,0,0,178.6PARTIAL,6,14,2,206.8,939.4,2,0,3,10,49,33,16,558.6,4,114,88.8,206.8,0,0,0,0,0,206.8PARTIAL,6,15,2,123.8,917,2,0,1,5,49,33,16,558.6,14,57,88.8,159.8,1,0,12,36,36,123.8PARTIAL,6,16,2,169.2,918.8,1,2,0,6,49,33,16,558.6,12,68.4,88.8,169.2,1,0,0,0,0,169.2PARTIAL,7,1,1,158.4,1143.4,2,0,2,4,44,25,19,589.6,16,53.6,88.8,158.4,1,0,0,0,0,158.4PARTIAL,7,2,1,169.8,1189.8,1,5,0,5,44,25,19,589.6,14,67,88.8,169.8,1,0,0,0,0,169.8PARTIAL,7,3,1,204,1096.4,2,0,1,8,44,25,19,589.6,8,107.2,88.8,204,0,0,0,0,0,204PARTIAL,7,4,1,192.6,1301.2,2,0,3,7,44,25,19,589.6,10,93.8,88.8,192.6,0,0,0,0,0,192.6PARTIAL,7,5,1,169.8,1175.2,1,2,0,5,44,25,19,589.6,14,67,88.8,169.8,1,0,0,0,0,169.8PARTIAL,7,6,1,169.8,1224.6,1,4,0,5,44,25,19,589.6,14,67,88.8,169.8,1,0,0,0,0,169.8PARTIAL,7,7,1,169.8,1214.4,1,1,0,5,44,25,19,589.6,14,67,88.8,169.8,1,0,0,0,0,169.8PARTIAL,7,8,1,169.8,1170.2,1,3,0,5,44,25,19,589.6,14,67,88.8,169.8,1,0,0,0,0,169.8PARTIAL,7,9,2,127.2,939.8,1,3,0,7,62,35,27,384.4,10,43.4,88.8,142.2,1,15,0,0,15,127.2PARTIAL,7,10,2,132.2,863.8,1,1,0,7,62,35,27,384.4,10,43.4,88.8,142.2,1,10,0,0,10,132.2PARTIAL,7,11,2,163.2,867.4,2,0,2,12,62,35,27,384.4,0,74.4,88.8,163.2,0,0,0,0,0,163.2PARTIAL,7,12,2,137.2,1101.4,1,5,0,7,62,35,27,384.4,10,43.4,88.8,142.2,1,5,0,0,5,137.2PARTIAL,7,13,2,141.2,1108.2,1,4,0,7,62,35,27,384.4,10,43.4,88.8,142.2,1,1,0,0,1,141.2PARTIAL,7,14,2,46.8,986.2,2,0,3,10,62,35,27,384.4,4,62,88.8,154.8,1,0,36,108,108,46.8PARTIAL,7,15,2,133.8,1050.8,2,0,1,5,62,35,27,384.4,14,31,88.8,133.8,0,0,0,0,0,133.8PARTIAL,7,16,2,137.2,1056,1,2,0,7,62,35,27,384.4,10,43.4,88.8,142.2,1,5,0,0,5,137.2PARTIAL,8,1,1,159.8,1303.2,2,0,2,5,49,27,22,558.6,14,57,88.8,159.8,0,0,0,0,0,159.8PARTIAL,8,2,1,159.8,1349.6,1,5,0,5,49,27,22,558.6,14,57,88.8,159.8,1,0,0,0,0,159.8PARTIAL,8,3,1,197.4,1293.8,2,0,1,9,49,27,22,558.6,6,102.6,88.8,197.4,0,0,0,0,0,197.4PARTIAL,8,4,1,170,1471.2,2,0,3,8,49,27,22,558.6,8,91.2,88.8,188,1,0,6,18,18,170PARTIAL,8,5,1,157.8,1333,1,2,0,5,49,27,22,558.6,14,57,88.8,159.8,1,2,0,0,2,157.8PARTIAL,8,6,1,154.8,1379.4,1,4,0,5,49,27,22,558.6,14,57,88.8,159.8,1,5,0,0,5,154.8PARTIAL,8,7,1,145.6,1360,1,1,0,7,49,27,22,558.6,10,79.8,88.8,178.6,1,0,11,33,33,145.6PARTIAL,8,8,1,149.8,1320,1,3,0,5,49,27,22,558.6,14,57,88.8,159.8,1,10,0,0,10,149.8PARTIAL,8,9,2,156,1095.8,1,3,0,8,59,36,23,436.6,8,59.2,88.8,156,1,0,0,0,0,156PARTIAL,8,10,2,142.6,1006.4,1,1,0,7,59,36,23,436.6,10,51.8,88.8,150.6,1,8,0,0,8,142.6PARTIAL,8,11,2,177.6,1045,2,0,2,12,59,36,23,436.6,0,88.8,88.8,177.6,0,0,0,0,0,177.6PARTIAL,8,12,2,145.6,1247,1,5,0,7,59,36,23,436.6,10,51.8,88.8,150.6,1,5,0,0,5,145.6PARTIAL,8,13,2,150.6,1258.8,1,4,0,7,59,36,23,436.6,10,51.8,88.8,150.6,1,0,0,0,0,150.6PARTIAL,8,14,2,145.2,1131.4,2,0,3,6,59,36,23,436.6,12,44.4,88.8,145.2,0,0,0,0,0,145.2PARTIAL,8,15,2,100.8,1151.6,2,0,1,5,59,36,23,436.6,14,37,88.8,139.8,1,0,13,39,39,100.8PARTIAL,8,16,2,150.6,1206.6,1,2,0,7,59,36,23,436.6,10,51.8,88.8,150.6,1,0,0,0,0,150.6PARTIAL,9,1,1,171.6,1474.8,2,0,2,6,48,25,23,566.4,12,70.8,88.8,171.6,0,0,0,0,0,171.6PARTIAL,9,2,1,161.8,1511.4,1,5,0,5,48,25,23,566.4,14,59,88.8,161.8,1,0,0,0,0,161.8PARTIAL,9,3,1,201,1494.8,2,0,1,9,48,25,23,566.4,6,106.2,88.8,201,0,0,0,0,0,201PARTIAL,9,4,1,131.2,1602.4,2,0,3,8,48,25,23,566.4,8,94.4,88.8,191.2,1,0,20,60,60,131.2PARTIAL,9,5,1,156.8,1489.8,1,2,0,5,48,25,23,566.4,14,59,88.8,161.8,1,5,0,0,5,156.8PARTIAL,9,6,1,156.8,1536.2,1,4,0,5,48,25,23,566.4,14,59,88.8,161.8,1,5,0,0,5,156.8PARTIAL,9,7,1,161.8,1521.8,1,1,0,5,48,25,23,566.4,14,59,88.8,161.8,1,0,0,0,0,161.8PARTIAL,9,8,1,151.8,1471.8,1,3,0,5,48,25,23,566.4,14,59,88.8,161.8,1,10,0,0,10,151.8PARTIAL,9,9,2,139.8,1235.6,1,3,0,6,55,26,29,495,12,54,88.8,154.8,1,15,0,0,15,139.8PARTIAL,9,10,2,137.8,1144.2,1,1,0,5,55,26,29,495,14,45,88.8,147.8,1,10,0,0,10,137.8PARTIAL,9,11,2,196.8,1241.8,2,0,2,12,55,26,29,495,0,108,88.8,196.8,0,0,0,0,0,196.8PARTIAL,9,12,2,135.8,1382.8,1,5,0,5,55,26,29,495,14,45,88.8,147.8,1,12,0,0,12,135.8PARTIAL,9,13,2,146.8,1405.6,1,4,0,5,55,26,29,495,14,45,88.8,147.8,1,1,0,0,1,146.8PARTIAL,9,14,2,147.8,1279.2,2,0,3,5,55,26,29,495,14,45,88.8,147.8,0,0,0,0,0,147.8PARTIAL,9,15,2,37.8,1189.4,2,0,1,12,55,26,29,495,0,108,88.8,196.8,1,0,53,159,159,37.8PARTIAL,9,16,2,132.8,1339.4,1,2,0,5,55,26,29,495,14,45,88.8,147.8,1,15,0,0,15,132.8PARTIAL,10,1,1,184.2,1659,2,0,2,7,47,25,22,573.4,10,85.4,88.8,184.2,0,0,0,0,0,184.2PARTIAL,10,2,1,163.8,1675.2,1,5,0,5,47,25,22,573.4,14,61,88.8,163.8,1,0,0,0,0,163.8PARTIAL,10,3,1,161.4,1656.2,2,0,1,8,47,25,22,573.4,8,97.6,88.8,194.4,1,0,11,33,33,161.4PARTIAL,10,4,1,184.2,1786.6,2,0,3,7,47,25,22,573.4,10,85.4,88.8,184.2,0,0,0,0,0,184.2PARTIAL,10,5,1,160.8,1650.6,1,2,0,5,47,25,22,573.4,14,61,88.8,163.8,1,3,0,0,3,160.8PARTIAL,10,6,1,160.8,1697,1,4,0,5,47,25,22,573.4,14,61,88.8,163.8,1,3,0,0,3,160.8PARTIAL,10,7,1,163.8,1685.6,1,1,0,5,47,25,22,573.4,14,61,88.8,163.8,1,0,0,0,0,163.8PARTIAL,10,8,1,158.8,1630.6,1,3,0,5,47,25,22,573.4,14,61,88.8,163.8,1,5,0,0,5,158.8PARTIAL,10,9,2,109.8,1345.4,1,3,0,10,72,36,36,158.4,4,22,88.8,114.8,1,5,0,0,5,109.8PARTIAL,10,10,2,106.2,1250.4,1,1,0,7,72,36,36,158.4,10,15.4,88.8,114.2,1,8,0,0,8,106.2PARTIAL,10,11,2,115.2,1357,2,0,2,12,72,36,36,158.4,0,26.4,88.8,115.2,0,0,0,0,0,115.2PARTIAL,10,12,2,107.2,1490,1,5,0,7,72,36,36,158.4,10,15.4,88.8,114.2,1,7,0,0,7,107.2PARTIAL,10,13,2,114.2,1519.8,1,4,0,7,72,36,36,158.4,10,15.4,88.8,114.2,1,0,0,0,0,114.2PARTIAL,10,14,2,115.2,1394.4,2,0,3,12,72,36,36,158.4,0,26.4,88.8,115.2,0,0,0,0,0,115.2PARTIAL,10,15,2,40.2,1229.6,2,0,1,12,72,36,36,158.4,0,26.4,88.8,115.2,1,0,25,75,75,40.2PARTIAL,10,16,2,108.8,1448.2,1,2,0,5,72,36,36,158.4,14,11,88.8,113.8,1,5,0,0,5,108.8PARTIAL,11,1,1,168.8,1827.8,2,0,2,8,55,30,25,495,8,72,88.8,168.8,0,0,0,0,0,168.8PARTIAL,11,2,1,149.8,1825,1,5,0,6,55,30,25,495,12,54,88.8,154.8,1,5,0,0,5,149.8PARTIAL,11,3,1,125.8,1782,2,0,1,10,55,30,25,495,4,90,88.8,182.8,1,0,19,57,57,125.8PARTIAL,11,4,1,161.8,1948.4,2,0,3,7,55,30,25,495,10,63,88.8,161.8,0,0,0,0,0,161.8PARTIAL,11,5,1,151.8,1802.4,1,2,0,6,55,30,25,495,12,54,88.8,154.8,1,3,0,0,3,151.8PARTIAL,11,6,1,150.8,1847.8,1,4,0,6,55,30,25,495,12,54,88.8,154.8,1,4,0,0,4,150.8PARTIAL,11,7,1,152.8,1838.4,1,1,0,6,55,30,25,495,12,54,88.8,154.8,1,2,0,0,2,152.8PARTIAL,11,8,1,149.8,1780.4,1,3,0,6,55,30,25,495,12,54,88.8,154.8,1,5,0,0,5,149.8PARTIAL,11,9,2,122.8,1468.2,1,3,0,10,49,26,23,558.6,4,114,88.8,206.8,1,0,28,84,84,122.8PARTIAL,11,10,2,130.4,1380.8,1,1,0,4,49,26,23,558.6,16,45.6,88.8,150.4,1,20,0,0,20,130.4PARTIAL,11,11,2,225.6,1582.6,2,0,2,12,49,26,23,558.6,0,136.8,88.8,225.6,0,0,0,0,0,225.6PARTIAL,11,12,2,140.4,1630.4,1,5,0,4,49,26,23,558.6,16,45.6,88.8,150.4,1,10,0,0,10,140.4PARTIAL,11,13,2,150.4,1670.2,1,4,0,4,49,26,23,558.6,16,45.6,88.8,150.4,1,0,0,0,0,150.4PARTIAL,11,14,2,103.2,1497.6,2,0,3,6,49,26,23,558.6,12,68.4,88.8,169.2,1,0,22,66,66,103.2PARTIAL,11,15,2,159.8,1389.4,2,0,1,5,49,26,23,558.6,14,57,88.8,159.8,0,0,0,0,0,159.8PARTIAL,11,16,2,130.4,1578.6,1,2,0,4,49,26,23,558.6,16,45.6,88.8,150.4,1,20,0,0,20,130.4PARTIAL,12,1,1,148,1975.8,2,0,2,7,46,25,21,579.6,10,88.2,88.8,187,1,0,13,39,39,148PARTIAL,12,2,1,160.8,1985.8,1,5,0,5,46,25,21,579.6,14,63,88.8,165.8,1,5,0,0,5,160.8PARTIAL,12,3,1,197.6,1979.6,2,0,1,8,46,25,21,579.6,8,100.8,88.8,197.6,0,0,0,0,0,197.6PARTIAL,12,4,1,176.4,2124.8,2,0,3,6,46,25,21,579.6,12,75.6,88.8,176.4,0,0,0,0,0,176.4PARTIAL,12,5,1,164.8,1967.2,1,2,0,5,46,25,21,579.6,14,63,88.8,165.8,1,1,0,0,1,164.8PARTIAL,12,6,1,165.8,2013.6,1,4,0,5,46,25,21,579.6,14,63,88.8,165.8,1,0,0,0,0,165.8PARTIAL,12,7,1,163.8,2002.2,1,1,0,5,46,25,21,579.6,14,63,88.8,165.8,1,2,0,0,2,163.8PARTIAL,12,8,1,160.8,1941.2,1,3,0,5,46,25,21,579.6,14,63,88.8,165.8,1,5,0,0,5,160.8PARTIAL,12,9,2,85.4,1553.6,1,3,0,12,68,41,27,258.4,0,45.6,88.8,134.4,1,10,13,39,49,85.4PARTIAL,12,10,2,93.6,1474.4,1,1,0,6,68,41,27,258.4,12,22.8,88.8,123.6,1,30,0,0,30,93.6PARTIAL,12,11,2,77.4,1660,2,0,2,12,68,41,27,258.4,0,45.6,88.8,134.4,1,0,19,57,57,77.4PARTIAL,12,12,2,113.6,1744,1,5,0,6,68,41,27,258.4,12,22.8,88.8,123.6,1,10,0,0,10,113.6PARTIAL,12,13,2,76.8,1747,1,4,0,10,68,41,27,258.4,4,38,88.8,130.8,1,0,18,54,54,76.8PARTIAL,12,14,2,130.8,1628.4,2,0,3,10,68,41,27,258.4,4,38,88.8,130.8,0,0,0,0,0,130.8PARTIAL,12,15,2,121.8,1511.2,2,0,1,5,68,41,27,258.4,14,19,88.8,121.8,0,0,0,0,0,121.8PARTIAL,12,16,2,125.4,1704,1,2,0,7,68,41,27,258.4,10,26.6,88.8,125.4,1,0,0,0,0,125.4PARTIAL,13,1,1,145,2120.8,2,0,2,7,46,25,21,579.6,10,88.2,88.8,187,1,0,14,42,42,145PARTIAL,13,2,1,160.8,2146.6,1,5,0,5,46,25,21,579.6,14,63,88.8,165.8,1,5,0,0,5,160.8PARTIAL,13,3,1,187,2166.6,2,0,1,7,46,25,21,579.6,10,88.2,88.8,187,0,0,0,0,0,187PARTIAL,13,4,1,187,2311.8,2,0,3,7,46,25,21,579.6,10,88.2,88.8,187,0,0,0,0,0,187PARTIAL,13,5,1,163.8,2131,1,2,0,5,46,25,21,579.6,14,63,88.8,165.8,1,2,0,0,2,163.8PARTIAL,13,6,1,160.8,2174.4,1,4,0,5,46,25,21,579.6,14,63,88.8,165.8,1,5,0,0,5,160.8PARTIAL,13,7,1,163.8,2166,1,1,0,5,46,25,21,579.6,14,63,88.8,165.8,1,2,0,0,2,163.8PARTIAL,13,8,1,165.8,2107,1,3,0,5,46,25,21,579.6,14,63,88.8,165.8,1,0,0,0,0,165.8PARTIAL,13,9,2,106.8,1660.4,1,3,0,5,48,25,23,566.4,14,59,88.8,161.8,1,55,0,0,55,106.8PARTIAL,13,10,2,151.8,1626.2,1,1,0,5,48,25,23,566.4,14,59,88.8,161.8,1,10,0,0,10,151.8PARTIAL,13,11,2,230.4,1890.4,2,0,2,12,48,25,23,566.4,0,141.6,88.8,230.4,0,0,0,0,0,230.4PARTIAL,13,12,2,156.8,1900.8,1,5,0,5,48,25,23,566.4,14,59,88.8,161.8,1,5,0,0,5,156.8PARTIAL,13,13,2,161.8,1908.8,1,4,0,5,48,25,23,566.4,14,59,88.8,161.8,1,0,0,0,0,161.8PARTIAL,13,14,2,123.6,1752,2,0,3,6,48,25,23,566.4,12,70.8,88.8,171.6,1,0,16,48,48,123.6PARTIAL,13,15,2,161.8,1673,2,0,1,5,48,25,23,566.4,14,59,88.8,161.8,0,0,0,0,0,161.8PARTIAL,13,16,2,0,1704,1,2,0,5,48,25,23,566.4,14,59,88.8,161.8,1,0,54,162,162,-0.2PARTIAL,14,1,1,194.4,2315.2,2,0,2,8,47,25,22,573.4,8,97.6,88.8,194.4,0,0,0,0,0,194.4PARTIAL,14,2,1,158.8,2305.4,1,5,0,5,47,25,22,573.4,14,61,88.8,163.8,1,5,0,0,5,158.8PARTIAL,14,3,1,184.2,2350.8,2,0,1,7,47,25,22,573.4,10,85.4,88.8,184.2,0,0,0,0,0,184.2PARTIAL,14,4,1,157.2,2469,2,0,3,7,47,25,22,573.4,10,85.4,88.8,184.2,1,0,9,27,27,157.2PARTIAL,14,5,1,163.8,2294.8,1,2,0,5,47,25,22,573.4,14,61,88.8,163.8,1,0,0,0,0,163.8PARTIAL,14,6,1,160.8,2335.2,1,4,0,5,47,25,22,573.4,14,61,88.8,163.8,1,3,0,0,3,160.8PARTIAL,14,7,1,162.8,2328.8,1,1,0,5,47,25,22,573.4,14,61,88.8,163.8,1,1,0,0,1,162.8PARTIAL,14,8,1,163.8,2270.8,1,3,0,5,47,25,22,573.4,14,61,88.8,163.8,1,0,0,0,0,163.8PARTIAL,14,9,2,121,1781.4,1,3,0,6,62,33,29,384.4,12,37.2,88.8,138,1,17,0,0,17,121PARTIAL,14,10,2,123.8,1750,1,1,0,5,62,33,29,384.4,14,31,88.8,133.8,1,10,0,0,10,123.8PARTIAL,14,11,2,163.2,2053.6,2,0,2,12,62,33,29,384.4,0,74.4,88.8,163.2,0,0,0,0,0,163.2PARTIAL,14,12,2,103.8,2004.6,1,5,0,5,62,33,29,384.4,14,31,88.8,133.8,1,30,0,0,30,103.8PARTIAL,14,13,2,132.8,2041.6,1,4,0,5,62,33,29,384.4,14,31,88.8,133.8,1,1,0,0,1,132.8PARTIAL,14,14,2,163.2,1915.2,2,0,3,12,62,33,29,384.4,0,74.4,88.8,163.2,0,0,0,0,0,163.2PARTIAL,14,15,2,133.8,1806.8,2,0,1,5,62,33,29,384.4,14,31,88.8,133.8,1,0,0,0,0,133.8PARTIAL,14,16,2,0,1704,1,2,0,12,62,33,29,384.4,0,74.4,88.8,163.2,1,0,58,174,174,-10.8PARTIAL,15,1,1,154,2469.2,2,0,2,8,54,28,26,507.6,8,75.2,88.8,172,1,0,6,18,18,154PARTIAL,15,2,1,139.8,2445.2,1,5,0,5,54,28,26,507.6,14,47,88.8,149.8,1,10,0,0,10,139.8PARTIAL,15,3,1,172,2522.8,2,0,1,8,54,28,26,507.6,8,75.2,88.8,172,0,0,0,0,0,172PARTIAL,15,4,1,186.8,2655.8,2,0,3,10,54,28,26,507.6,4,94,88.8,186.8,0,0,0,0,0,186.8PARTIAL,15,5,1,151,2445.8,1,2,0,8,54,28,26,507.6,8,75.2,88.8,172,1,0,7,21,21,151PARTIAL,15,6,1,149.8,2485,1,4,0,5,54,28,26,507.6,14,47,88.8,149.8,1,0,0,0,0,149.8PARTIAL,15,7,1,146.8,2475.6,1,1,0,5,54,28,26,507.6,14,47,88.8,149.8,1,3,0,0,3,146.8PARTIAL,15,8,1,149.8,2420.6,1,3,0,5,54,28,26,507.6,14,47,88.8,149.8,1,0,0,0,0,149.8PARTIAL,15,9,2,0,1781.4,1,3,0,12,63,38,25,365.4,0,69.6,88.8,158.4,1,47,149,447,494,-335.6PARTIAL,15,10,2,111.8,1861.8,1,1,0,5,63,38,25,365.4,14,29,88.8,131.8,1,20,0,0,20,111.8PARTIAL,15,11,2,158.4,2212,2,0,2,12,63,38,25,365.4,0,69.6,88.8,158.4,0,0,0,0,0,158.4PARTIAL,15,12,2,139.4,2144,1,5,0,7,63,38,25,365.4,10,40.6,88.8,139.4,1,0,0,0,0,139.4PARTIAL,15,13,2,139.4,2181,1,4,0,7,63,38,25,365.4,10,40.6,88.8,139.4,1,0,0,0,0,139.4PARTIAL,15,14,2,131.8,2047,2,0,3,5,63,38,25,365.4,14,29,88.8,131.8,0,0,0,0,0,131.8PARTIAL,15,15,2,113.2,1920,2,0,1,8,63,38,25,365.4,8,46.4,88.8,143.2,1,0,10,30,30,113.2PARTIAL,15,16,2,0,1704,1,2,0,7,63,38,25,365.4,10,40.6,88.8,139.4,1,139,47,141,280,-140.6PARTIAL,1,1,3,219,219,2,0,2,9,43,26,17,593.4,6,124.2,88.8,219,0,0,0,0,0,219PARTIAL,1,2,3,189.2,189.2,2,0,1,8,43,26,17,593.4,8,110.4,88.8,207.2,1,0,6,18,18,189.2PARTIAL,1,3,3,167.8,167.8,1,4,0,5,43,26,17,593.4,14,69,88.8,171.8,1,4,0,0,4,167.8PARTIAL,1,4,3,112.8,112.8,2,0,3,0,43,26,17,593.4,24,0,88.8,112.8,0,0,0,0,0,112.8PARTIAL,1,5,3,180.6,180.6,1,5,0,6,43,26,17,593.4,12,82.8,88.8,183.6,1,0,1,3,3,180.6PARTIAL,1,6,3,171.8,171.8,1,2,0,5,43,26,17,593.4,14,69,88.8,171.8,1,0,0,0,0,171.8PARTIAL,1,7,3,168.8,168.8,1,3,0,5,43,26,17,593.4,14,69,88.8,171.8,1,3,0,0,3,168.8PARTIAL,1,8,3,171.8,171.8,1,1,0,5,43,26,17,593.4,14,69,88.8,171.8,1,0,0,0,0,171.8PARTIAL,1,9,4,155.2,155.2,1,1,0,4,46,21,25,579.6,16,50.4,88.8,155.2,1,0,0,0,0,155.2PARTIAL,1,10,4,155.2,155.2,1,4,0,4,46,21,25,579.6,16,50.4,88.8,155.2,1,0,0,0,0,155.2PARTIAL,1,11,4,176.4,176.4,2,0,3,6,46,21,25,579.6,12,75.6,88.8,176.4,0,0,0,0,0,176.4PARTIAL,1,12,4,155.2,155.2,1,2,0,4,46,21,25,579.6,16,50.4,88.8,155.2,1,0,0,0,0,155.2PARTIAL,1,13,4,165.8,165.8,1,3,0,5,46,21,25,579.6,14,63,88.8,165.8,1,0,0,0,0,165.8PARTIAL,1,14,4,197.6,197.6,2,0,2,8,46,21,25,579.6,8,100.8,88.8,197.6,1,0,0,0,0,197.6PARTIAL,1,15,4,155.2,155.2,1,5,0,4,46,21,25,579.6,16,50.4,88.8,155.2,1,0,0,0,0,155.2PARTIAL,1,16,4,229.4,229.4,2,0,1,11,46,21,25,579.6,2,138.6,88.8,229.4,0,0,0,0,0,229.4PARTIAL,2,1,3,166.8,385.8,2,0,2,12,60,36,24,420,0,84,88.8,172.8,1,0,2,6,6,166.8PARTIAL,2,2,3,147.8,337,2,0,1,7,60,36,24,420,10,49,88.8,147.8,0,0,0,0,0,147.8PARTIAL,2,3,3,134.8,302.6,1,4,0,5,60,36,24,420,14,35,88.8,137.8,1,0,1,3,3,134.8PARTIAL,2,4,3,137.8,250.6,2,0,3,5,60,36,24,420,14,35,88.8,137.8,0,0,0,0,0,137.8PARTIAL,2,5,3,137.8,318.4,1,5,0,6,60,36,24,420,12,42,88.8,142.8,1,2,1,3,5,137.8PARTIAL,2,6,3,149.8,321.6,1,2,0,8,60,36,24,420,8,56,88.8,152.8,1,0,1,3,3,149.8PARTIAL,2,7,3,134.8,303.6,1,3,0,5,60,36,24,420,14,35,88.8,137.8,1,0,1,3,3,134.8PARTIAL,2,8,3,164.8,336.6,1,1,0,12,60,36,24,420,0,84,88.8,172.8,1,5,1,3,8,164.8PARTIAL,2,9,4,164.4,319.6,1,1,0,6,51,31,20,540.6,12,63.6,88.8,164.4,1,0,0,0,0,164.4PARTIAL,2,10,4,147.2,302.4,1,4,0,4,51,31,20,540.6,16,42.4,88.8,147.2,1,0,0,0,0,147.2PARTIAL,2,11,4,173,349.4,2,0,3,7,51,31,20,540.6,10,74.2,88.8,173,0,0,0,0,0,173PARTIAL,2,12,4,147.2,302.4,1,2,0,4,51,31,20,540.6,16,42.4,88.8,147.2,1,0,0,0,0,147.2PARTIAL,2,13,4,155.8,321.6,1,3,0,5,51,31,20,540.6,14,53,88.8,155.8,1,0,0,0,0,155.8PARTIAL,2,14,4,181.6,379.2,2,0,2,8,51,31,20,540.6,8,84.8,88.8,181.6,0,0,0,0,0,181.6PARTIAL,2,15,4,216,371.2,1,5,0,12,51,31,20,540.6,0,127.2,88.8,216,1,0,0,0,0,216PARTIAL,2,16,4,155.8,385.2,2,0,1,5,51,31,20,540.6,14,53,88.8,155.8,1,0,0,0,0,155.8PARTIAL,3,1,3,130.2,516,2,0,2,12,47,23,24,573.4,0,146.4,88.8,235.2,1,0,35,105,105,130.2PARTIAL,3,2,3,184.2,521.2,2,0,1,7,47,23,24,573.4,10,85.4,88.8,184.2,0,0,0,0,0,184.2PARTIAL,3,3,3,147.6,450.2,1,4,0,4,47,23,24,573.4,16,48.8,88.8,153.6,1,6,0,0,6,147.6PARTIAL,3,4,3,163.8,414.4,2,0,3,5,47,23,24,573.4,14,61,88.8,163.8,0,0,0,0,0,163.8PARTIAL,3,5,3,148.6,467,1,5,0,4,47,23,24,573.4,16,48.8,88.8,153.6,1,5,0,0,5,148.6PARTIAL,3,6,3,175.2,496.8,1,2,0,7,47,23,24,573.4,10,85.4,88.8,184.2,1,0,3,9,9,175.2PARTIAL,3,7,3,128.6,432.2,1,3,0,4,47,23,24,573.4,16,48.8,88.8,153.6,1,25,0,0,25,128.6PARTIAL,3,8,3,151.6,488.2,1,1,0,4,47,23,24,573.4,16,48.8,88.8,153.6,1,2,0,0,2,151.6PARTIAL,3,9,4,130.2,449.8,1,1,0,3,58,28,30,452.4,18,23.4,88.8,130.2,1,0,0,0,0,130.2PARTIAL,3,10,4,130.2,432.6,1,4,0,3,58,28,30,452.4,18,23.4,88.8,130.2,1,0,0,0,0,130.2PARTIAL,3,11,4,170.8,520.2,2,0,3,10,58,28,30,452.4,4,78,88.8,170.8,0,0,0,0,0,170.8PARTIAL,3,12,4,147.6,450,1,2,0,6,58,28,30,452.4,12,46.8,88.8,147.6,1,0,0,0,0,147.6PARTIAL,3,13,4,147.6,469.2,1,3,0,6,58,28,30,452.4,12,46.8,88.8,147.6,1,0,0,0,0,147.6PARTIAL,3,14,4,170.8,550,2,0,2,10,58,28,30,452.4,4,78,88.8,170.8,0,0,0,0,0,170.8PARTIAL,3,15,4,170.8,542,1,5,0,10,58,28,30,452.4,4,78,88.8,170.8,1,0,0,0,0,170.8PARTIAL,3,16,4,170.8,556,2,0,1,10,58,28,30,452.4,4,78,88.8,170.8,1,0,0,0,0,170.8PARTIAL,4,1,3,211.2,727.2,2,0,2,12,52,27,25,530.4,0,122.4,88.8,211.2,0,0,0,0,0,211.2PARTIAL,4,2,3,167.2,688.4,2,0,1,7,52,27,25,530.4,10,71.4,88.8,170.2,1,0,1,3,3,167.2PARTIAL,4,3,3,142.6,592.8,1,4,0,4,52,27,25,530.4,16,40.8,88.8,145.6,1,0,1,3,3,142.6PARTIAL,4,4,3,162,576.4,2,0,3,6,52,27,25,530.4,12,61.2,88.8,162,0,0,0,0,0,162PARTIAL,4,5,3,55.4,522.4,1,5,0,8,52,27,25,530.4,8,81.6,88.8,178.4,1,0,41,123,123,55.4PARTIAL,4,6,3,167.2,664,1,2,0,7,52,27,25,530.4,10,71.4,88.8,170.2,1,0,1,3,3,167.2PARTIAL,4,7,3,102.6,534.8,1,3,0,4,52,27,25,530.4,16,40.8,88.8,145.6,1,40,1,3,43,102.6PARTIAL,4,8,3,140.6,628.8,1,1,0,4,52,27,25,530.4,16,40.8,88.8,145.6,1,5,0,0,5,140.6PARTIAL,4,9,4,128,577.8,1,1,0,4,63,36,27,365.4,16,23.2,88.8,128,1,0,0,0,0,128PARTIAL,4,10,4,131.8,564.4,1,4,0,5,63,36,27,365.4,14,29,88.8,131.8,1,0,0,0,0,131.8PARTIAL,4,11,4,154.6,674.8,2,0,3,11,63,36,27,365.4,2,63.8,88.8,154.6,0,0,0,0,0,154.6PARTIAL,4,12,4,139.4,589.4,1,2,0,7,63,36,27,365.4,10,40.6,88.8,139.4,1,0,0,0,0,139.4PARTIAL,4,13,4,143.2,612.4,1,3,0,8,63,36,27,365.4,8,46.4,88.8,143.2,1,0,0,0,0,143.2PARTIAL,4,14,4,131.8,681.8,2,0,2,5,63,36,27,365.4,14,29,88.8,131.8,1,0,0,0,0,131.8PARTIAL,4,15,4,158.4,700.4,1,5,0,12,63,36,27,365.4,0,69.6,88.8,158.4,1,0,0,0,0,158.4PARTIAL,4,16,4,154.6,710.6,2,0,1,11,63,36,27,365.4,2,63.8,88.8,154.6,0,0,0,0,0,154.6PARTIAL,5,1,3,172.8,900,2,0,2,12,60,29,31,420,0,84,88.8,172.8,0,0,0,0,0,172.8PARTIAL,5,2,3,172.8,861.2,2,0,1,12,60,29,31,420,0,84,88.8,172.8,1,0,0,0,0,172.8PARTIAL,5,3,3,157.8,750.6,1,4,0,9,60,29,31,420,6,63,88.8,157.8,1,0,0,0,0,157.8PARTIAL,5,4,3,147.8,724.2,2,0,3,7,60,29,31,420,10,49,88.8,147.8,0,0,0,0,0,147.8PARTIAL,5,5,3,132.8,655.2,1,5,0,4,60,29,31,420,16,28,88.8,132.8,1,0,0,0,0,132.8PARTIAL,5,6,3,147.8,811.8,1,2,0,7,60,29,31,420,10,49,88.8,147.8,1,0,0,0,0,147.8PARTIAL,5,7,3,132.8,667.6,1,3,0,4,60,29,31,420,16,28,88.8,132.8,1,0,0,0,0,132.8PARTIAL,5,8,3,137.8,766.6,1,1,0,5,60,29,31,420,14,35,88.8,137.8,1,0,0,0,0,137.8PARTIAL,5,9,4,181.2,759,1,1,0,6,44,28,16,589.6,12,80.4,88.8,181.2,1,0,0,0,0,181.2PARTIAL,5,10,4,204,768.4,1,4,0,8,44,28,16,589.6,8,107.2,88.8,204,1,0,0,0,0,204PARTIAL,5,11,4,192.6,867.4,2,0,3,7,44,28,16,589.6,10,93.8,88.8,192.6,1,0,0,0,0,192.6PARTIAL,5,12,4,169.8,759.2,1,2,0,5,44,28,16,589.6,14,67,88.8,169.8,1,0,0,0,0,169.8PARTIAL,5,13,4,181.2,793.6,1,3,0,6,44,28,16,589.6,12,80.4,88.8,181.2,1,0,0,0,0,181.2PARTIAL,5,14,4,158.4,840.2,2,0,2,4,44,28,16,589.6,16,53.6,88.8,158.4,0,0,0,0,0,158.4PARTIAL,5,15,4,147,847.4,1,5,0,3,44,28,16,589.6,18,40.2,88.8,147,1,0,0,0,0,147PARTIAL,5,16,4,169.8,880.4,2,0,1,5,44,28,16,589.6,14,67,88.8,169.8,0,0,0,0,0,169.8PARTIAL,6,1,3,187.2,1087.2,2,0,2,12,57,27,30,467.4,0,98.4,88.8,187.2,0,0,0,0,0,187.2PARTIAL,6,2,3,187.2,1048.4,2,0,1,12,57,27,30,467.4,0,98.4,88.8,187.2,1,0,0,0,0,187.2PARTIAL,6,3,3,156.2,906.8,1,4,0,7,57,27,30,467.4,10,57.4,88.8,156.2,1,0,0,0,0,156.2PARTIAL,6,4,3,150,874.2,2,0,3,6,57,27,30,467.4,12,49.2,88.8,150,0,0,0,0,0,150PARTIAL,6,5,3,137.6,792.8,1,5,0,4,57,27,30,467.4,16,32.8,88.8,137.6,1,0,0,0,0,137.6PARTIAL,6,6,3,162.4,974.2,1,2,0,8,57,27,30,467.4,8,65.6,88.8,162.4,1,0,0,0,0,162.4PARTIAL,6,7,3,137.6,805.2,1,3,0,4,57,27,30,467.4,16,32.8,88.8,137.6,1,0,0,0,0,137.6PARTIAL,6,8,3,137.6,904.2,1,1,0,4,57,27,30,467.4,16,32.8,88.8,137.6,1,0,0,0,0,137.6PARTIAL,6,9,4,166.8,925.8,1,1,0,6,50,29,21,550,12,66,88.8,166.8,1,0,0,0,0,166.8PARTIAL,6,10,4,175.8,944.2,1,4,0,7,50,29,21,550,10,77,88.8,175.8,1,0,0,0,0,175.8PARTIAL,6,11,4,184.8,1052.2,2,0,3,8,50,29,21,550,8,88,88.8,184.8,0,0,0,0,0,184.8PARTIAL,6,12,4,157.8,917,1,2,0,5,50,29,21,550,14,55,88.8,157.8,1,0,0,0,0,157.8PARTIAL,6,13,4,166.8,960.4,1,3,0,6,50,29,21,550,12,66,88.8,166.8,1,0,0,0,0,166.8PARTIAL,6,14,4,166.8,1007,2,0,2,6,50,29,21,550,12,66,88.8,166.8,0,0,0,0,0,166.8PARTIAL,6,15,4,157.8,1005.2,1,5,0,5,50,29,21,550,14,55,88.8,157.8,1,0,0,0,0,157.8PARTIAL,6,16,4,175.8,1056.2,2,0,1,7,50,29,21,550,10,77,88.8,175.8,1,0,0,0,0,175.8PARTIAL,7,1,3,211.2,1298.4,2,0,2,12,52,29,23,530.4,0,122.4,88.8,211.2,0,0,0,0,0,211.2PARTIAL,7,2,3,162,1210.4,2,0,1,6,52,29,23,530.4,12,61.2,88.8,162,0,0,0,0,0,162PARTIAL,7,3,3,170.2,1077,1,4,0,7,52,29,23,530.4,10,71.4,88.8,170.2,1,0,0,0,0,170.2PARTIAL,7,4,3,153.8,1028,2,0,3,5,52,29,23,530.4,14,51,88.8,153.8,1,0,0,0,0,153.8PARTIAL,7,5,3,133.6,926.4,1,5,0,4,52,29,23,530.4,16,40.8,88.8,145.6,1,12,0,0,12,133.6PARTIAL,7,6,3,170.2,1144.4,1,2,0,7,52,29,23,530.4,10,71.4,88.8,170.2,1,0,0,0,0,170.2PARTIAL,7,7,3,114.6,919.8,1,3,0,9,52,29,23,530.4,6,91.8,88.8,186.6,1,0,24,72,72,114.6PARTIAL,7,8,3,117.2,1021.4,1,1,0,2,52,29,23,530.4,20,20.4,88.8,129.2,1,12,0,0,12,117.2PARTIAL,7,9,4,57.6,983.4,1,1,0,12,84,60,24,-218.4,0,-31.2,88.8,57.6,1,0,0,0,0,57.6PARTIAL,7,10,4,57.6,1001.8,1,4,0,12,84,60,24,-218.4,0,-31.2,88.8,57.6,1,0,0,0,0,57.6PARTIAL,7,11,4,66.8,1119,2,0,3,10,84,60,24,-218.4,4,-26,88.8,66.8,0,0,0,0,0,66.8PARTIAL,7,12,4,56.6,973.6,1,2,0,12,84,60,24,-218.4,0,-31.2,88.8,57.6,1,1,0,0,1,56.6PARTIAL,7,13,4,56.6,1017,1,3,0,12,84,60,24,-218.4,0,-31.2,88.8,57.6,1,1,0,0,1,56.6PARTIAL,7,14,4,85.2,1092.2,2,0,2,6,84,60,24,-218.4,12,-15.6,88.8,85.2,0,0,0,0,0,85.2PARTIAL,7,15,4,55.6,1060.8,1,5,0,12,84,60,24,-218.4,0,-31.2,88.8,57.6,1,2,0,0,2,55.6PARTIAL,7,16,4,64,1120.2,2,0,1,8,84,60,24,-218.4,8,-20.8,88.8,76,1,0,4,12,12,64PARTIAL,8,1,3,109.8,1408.2,2,0,2,12,65,34,31,325,0,60,88.8,148.8,1,0,13,39,39,109.8PARTIAL,8,2,3,148.8,1359.2,2,0,1,12,65,34,31,325,0,60,88.8,148.8,0,0,0,0,0,148.8PARTIAL,8,3,3,133.8,1210.8,1,4,0,8,65,34,31,325,8,40,88.8,136.8,1,0,1,3,3,133.8PARTIAL,8,4,3,133.8,1161.8,2,0,3,7,65,34,31,325,10,35,88.8,133.8,0,0,0,0,0,133.8PARTIAL,8,5,3,128.8,1055.2,1,5,0,7,65,34,31,325,10,35,88.8,133.8,1,2,1,3,5,128.8PARTIAL,8,6,3,130.8,1275.2,1,2,0,7,65,34,31,325,10,35,88.8,133.8,1,0,1,3,3,130.8PARTIAL,8,7,3,114.8,1034.6,1,3,0,5,65,34,31,325,14,25,88.8,127.8,1,10,1,3,13,114.8PARTIAL,8,8,3,128.8,1150.2,1,1,0,7,65,34,31,325,10,35,88.8,133.8,1,5,0,0,5,128.8PARTIAL,8,9,4,161.8,1145.2,1,1,0,7,55,33,22,495,10,63,88.8,161.8,1,0,0,0,0,161.8PARTIAL,8,10,4,147.8,1149.6,1,4,0,5,55,33,22,495,14,45,88.8,147.8,1,0,0,0,0,147.8PARTIAL,8,11,4,163.8,1282.8,2,0,3,9,55,33,22,495,6,81,88.8,175.8,1,0,4,12,12,163.8PARTIAL,8,12,4,181.8,1155.4,1,2,0,10,55,33,22,495,4,90,88.8,182.8,1,1,0,0,1,181.8PARTIAL,8,13,4,153.8,1170.8,1,3,0,6,55,33,22,495,12,54,88.8,154.8,1,1,0,0,1,153.8PARTIAL,8,14,4,168.8,1261,2,0,2,8,55,33,22,495,8,72,88.8,168.8,0,0,0,0,0,168.8PARTIAL,8,15,4,145.8,1206.6,1,5,0,5,55,33,22,495,14,45,88.8,147.8,1,2,0,0,2,145.8PARTIAL,8,16,4,147.8,1268,2,0,1,5,55,33,22,495,14,45,88.8,147.8,0,0,0,0,0,147.8PARTIAL,9,1,3,177.6,1585.8,2,0,2,12,59,30,29,436.6,0,88.8,88.8,177.6,0,0,0,0,0,177.6PARTIAL,9,2,3,123.6,1482.8,2,0,1,12,59,30,29,436.6,0,88.8,88.8,177.6,1,0,18,54,54,123.6PARTIAL,9,3,3,145.2,1356,1,4,0,6,59,30,29,436.6,12,44.4,88.8,145.2,1,0,0,0,0,145.2PARTIAL,9,4,3,139.8,1301.6,2,0,3,5,59,30,29,436.6,14,37,88.8,139.8,0,0,0,0,0,139.8PARTIAL,9,5,3,139.8,1195,1,5,0,5,59,30,29,436.6,14,37,88.8,139.8,1,0,0,0,0,139.8PARTIAL,9,6,3,46.8,1322,1,2,0,10,59,30,29,436.6,4,74,88.8,166.8,1,0,40,120,120,46.8PARTIAL,9,7,3,89.8,1124.4,1,3,0,5,59,30,29,436.6,14,37,88.8,139.8,1,50,0,0,50,89.8PARTIAL,9,8,3,126.4,1276.6,1,1,0,4,59,30,29,436.6,16,29.6,88.8,134.4,1,8,0,0,8,126.4PARTIAL,9,9,4,164.6,1309.8,1,1,0,7,54,34,20,507.6,10,65.8,88.8,164.6,1,0,0,0,0,164.6PARTIAL,9,10,4,172,1321.6,1,4,0,8,54,34,20,507.6,8,75.2,88.8,172,1,0,0,0,0,172PARTIAL,9,11,4,159.8,1442.6,2,0,3,10,54,34,20,507.6,4,94,88.8,186.8,1,0,9,27,27,159.8PARTIAL,9,12,4,163.6,1319,1,2,0,7,54,34,20,507.6,10,65.8,88.8,164.6,1,1,0,0,1,163.6PARTIAL,9,13,4,156.2,1327,1,3,0,6,54,34,20,507.6,12,56.4,88.8,157.2,1,1,0,0,1,156.2PARTIAL,9,14,4,149.8,1410.8,2,0,2,5,54,34,20,507.6,14,47,88.8,149.8,0,0,0,0,0,149.8PARTIAL,9,15,4,150.2,1356.8,1,5,0,6,54,34,20,507.6,12,56.4,88.8,157.2,1,7,0,0,7,150.2PARTIAL,9,16,4,149.8,1417.8,2,0,1,5,54,34,20,507.6,14,47,88.8,149.8,0,0,0,0,0,149.8PARTIAL,10,1,3,182.4,1768.2,2,0,2,12,58,29,29,452.4,0,93.6,88.8,182.4,0,0,0,0,0,182.4PARTIAL,10,2,3,182.4,1665.2,2,0,1,12,58,29,29,452.4,0,93.6,88.8,182.4,0,0,0,0,0,182.4PARTIAL,10,3,3,159.2,1515.2,1,4,0,8,58,29,29,452.4,8,62.4,88.8,159.2,1,0,0,0,0,159.2PARTIAL,10,4,3,129.8,1431.4,2,0,3,5,58,29,29,452.4,14,39,88.8,141.8,1,0,4,12,12,129.8PARTIAL,10,5,3,147.6,1342.6,1,5,0,6,58,29,29,452.4,12,46.8,88.8,147.6,1,0,0,0,0,147.6PARTIAL,10,6,3,153.4,1475.4,1,2,0,7,58,29,29,452.4,10,54.6,88.8,153.4,1,0,0,0,0,153.4PARTIAL,10,7,3,136,1260.4,1,3,0,4,58,29,29,452.4,16,31.2,88.8,136,1,0,0,0,0,136PARTIAL,10,8,3,132,1408.6,1,1,0,4,58,29,29,452.4,16,31.2,88.8,136,1,4,0,0,4,132PARTIAL,10,9,4,140,1449.8,1,1,0,8,64,39,25,345.6,8,43.2,88.8,140,1,0,0,0,0,140PARTIAL,10,10,4,143.4,1465,1,4,0,9,64,39,25,345.6,6,48.6,88.8,143.4,1,0,0,0,0,143.4PARTIAL,10,11,4,153.6,1596.2,2,0,3,12,64,39,25,345.6,0,64.8,88.8,153.6,0,0,0,0,0,153.6PARTIAL,10,12,4,139,1458,1,2,0,8,64,39,25,345.6,8,43.2,88.8,140,1,1,0,0,1,139PARTIAL,10,13,4,136.6,1463.6,1,3,0,7,64,39,25,345.6,10,37.8,88.8,136.6,1,0,0,0,0,136.6PARTIAL,10,14,4,137,1547.8,2,0,2,8,64,39,25,345.6,8,43.2,88.8,140,1,0,1,3,3,137PARTIAL,10,15,4,136.6,1493.4,1,5,0,7,64,39,25,345.6,10,37.8,88.8,136.6,1,0,0,0,0,136.6PARTIAL,10,16,4,129.8,1547.6,2,0,1,5,64,39,25,345.6,14,27,88.8,129.8,0,0,0,0,0,129.8PARTIAL,11,1,3,170.4,1938.6,2,0,2,12,58,29,29,452.4,0,93.6,88.8,182.4,1,0,4,12,12,170.4PARTIAL,11,2,3,182.4,1847.6,2,0,1,12,58,29,29,452.4,0,93.6,88.8,182.4,0,0,0,0,0,182.4PARTIAL,11,3,3,153.4,1668.6,1,4,0,7,58,29,29,452.4,10,54.6,88.8,153.4,1,0,0,0,0,153.4PARTIAL,11,4,3,141.8,1573.2,2,0,3,5,58,29,29,452.4,14,39,88.8,141.8,0,0,0,0,0,141.8PARTIAL,11,5,3,140.8,1483.4,1,5,0,5,58,29,29,452.4,14,39,88.8,141.8,1,1,0,0,1,140.8PARTIAL,11,6,3,153.4,1628.8,1,2,0,7,58,29,29,452.4,10,54.6,88.8,153.4,1,0,0,0,0,153.4PARTIAL,11,7,3,141.8,1402.2,1,3,0,5,58,29,29,452.4,14,39,88.8,141.8,1,0,0,0,0,141.8PARTIAL,11,8,3,138.8,1547.4,1,1,0,5,58,29,29,452.4,14,39,88.8,141.8,1,3,0,0,3,138.8PARTIAL,11,9,4,161.8,1611.6,1,1,0,5,48,26,22,566.4,14,59,88.8,161.8,1,0,0,0,0,161.8PARTIAL,11,10,4,171.6,1636.6,1,4,0,6,48,26,22,566.4,12,70.8,88.8,171.6,1,0,0,0,0,171.6PARTIAL,11,11,4,210.8,1807,2,0,3,10,48,26,22,566.4,4,118,88.8,210.8,0,0,0,0,0,210.8PARTIAL,11,12,4,161.8,1619.8,1,2,0,5,48,26,22,566.4,14,59,88.8,161.8,1,0,0,0,0,161.8PARTIAL,11,13,4,161.8,1625.4,1,3,0,5,48,26,22,566.4,14,59,88.8,161.8,1,0,0,0,0,161.8PARTIAL,11,14,4,171.6,1719.4,2,0,2,6,48,26,22,566.4,12,70.8,88.8,171.6,1,0,0,0,0,171.6PARTIAL,11,15,4,161.8,1655.2,1,5,0,5,48,26,22,566.4,14,59,88.8,161.8,1,0,0,0,0,161.8PARTIAL,11,16,4,171.6,1719.2,2,0,1,6,48,26,22,566.4,12,70.8,88.8,171.6,0,0,0,0,0,171.6PARTIAL,12,1,3,172.8,2111.4,2,0,2,12,60,31,29,420,0,84,88.8,172.8,0,0,0,0,0,172.8PARTIAL,12,2,3,172.8,2020.4,2,0,1,12,60,31,29,420,0,84,88.8,172.8,0,0,0,0,0,172.8PARTIAL,12,3,3,147.8,1816.4,1,4,0,7,60,31,29,420,10,49,88.8,147.8,1,0,0,0,0,147.8PARTIAL,12,4,3,128.8,1702,2,0,3,5,60,31,29,420,14,35,88.8,137.8,1,0,3,9,9,128.8PARTIAL,12,5,3,142.8,1626.2,1,5,0,6,60,31,29,420,12,42,88.8,142.8,1,0,0,0,0,142.8PARTIAL,12,6,3,147.8,1776.6,1,2,0,7,60,31,29,420,10,49,88.8,147.8,1,0,0,0,0,147.8PARTIAL,12,7,3,142.8,1545,1,3,0,6,60,31,29,420,12,42,88.8,142.8,1,0,0,0,0,142.8PARTIAL,12,8,3,134.8,1682.2,1,1,0,5,60,31,29,420,14,35,88.8,137.8,1,3,0,0,3,134.8PARTIAL,12,9,4,164.4,1776,1,1,0,6,51,29,22,540.6,12,63.6,88.8,164.4,1,0,0,0,0,164.4PARTIAL,12,10,4,164.4,1801,1,4,0,6,51,29,22,540.6,12,63.6,88.8,164.4,1,0,0,0,0,164.4PARTIAL,12,11,4,198.8,2005.8,2,0,3,10,51,29,22,540.6,4,106,88.8,198.8,0,0,0,0,0,198.8PARTIAL,12,12,4,164.4,1784.2,1,2,0,6,51,29,22,540.6,12,63.6,88.8,164.4,1,0,0,0,0,164.4PARTIAL,12,13,4,155.8,1781.2,1,3,0,5,51,29,22,540.6,14,53,88.8,155.8,1,0,0,0,0,155.8PARTIAL,12,14,4,164.4,1883.8,2,0,2,6,51,29,22,540.6,12,63.6,88.8,164.4,1,0,0,0,0,164.4PARTIAL,12,15,4,164.4,1819.6,1,5,0,6,51,29,22,540.6,12,63.6,88.8,164.4,1,0,0,0,0,164.4PARTIAL,12,16,4,164.4,1883.6,2,0,1,6,51,29,22,540.6,12,63.6,88.8,164.4,0,0,0,0,0,164.4PARTIAL,13,1,3,160.8,2272.2,2,0,2,12,60,31,29,420,0,84,88.8,172.8,1,0,4,12,12,160.8PARTIAL,13,2,3,172.8,2193.2,2,0,1,12,60,31,29,420,0,84,88.8,172.8,0,0,0,0,0,172.8PARTIAL,13,3,3,142.8,1959.2,1,4,0,6,60,31,29,420,12,42,88.8,142.8,1,0,0,0,0,142.8PARTIAL,13,4,3,137.8,1839.8,2,0,3,5,60,31,29,420,14,35,88.8,137.8,0,0,0,0,0,137.8PARTIAL,13,5,3,142.8,1769,1,5,0,6,60,31,29,420,12,42,88.8,142.8,1,0,0,0,0,142.8PARTIAL,13,6,3,147.8,1924.4,1,2,0,7,60,31,29,420,10,49,88.8,147.8,1,0,0,0,0,147.8PARTIAL,13,7,3,142.8,1687.8,1,3,0,6,60,31,29,420,12,42,88.8,142.8,1,0,0,0,0,142.8PARTIAL,13,8,3,138.8,1821,1,1,0,6,60,31,29,420,12,42,88.8,142.8,1,4,0,0,4,138.8PARTIAL,13,9,4,157.2,1933.2,1,1,0,6,54,30,24,507.6,12,56.4,88.8,157.2,1,0,0,0,0,157.2PARTIAL,13,10,4,157.2,1958.2,1,4,0,6,54,30,24,507.6,12,56.4,88.8,157.2,1,0,0,0,0,157.2PARTIAL,13,11,4,158.4,2164.2,2,0,3,9,54,30,24,507.6,6,84.6,88.8,179.4,1,0,7,21,21,158.4PARTIAL,13,12,4,156.2,1940.4,1,2,0,6,54,30,24,507.6,12,56.4,88.8,157.2,1,1,0,0,1,156.2PARTIAL,13,13,4,156.2,1937.4,1,3,0,6,54,30,24,507.6,12,56.4,88.8,157.2,1,1,0,0,1,156.2PARTIAL,13,14,4,172,2055.8,2,0,2,8,54,30,24,507.6,8,75.2,88.8,172,0,0,0,0,0,172PARTIAL,13,15,4,152.2,1971.8,1,5,0,6,54,30,24,507.6,12,56.4,88.8,157.2,1,5,0,0,5,152.2PARTIAL,13,16,4,164.6,2048.2,2,0,1,7,54,30,24,507.6,10,65.8,88.8,164.6,0,0,0,0,0,164.6PARTIAL,14,1,3,144,2416.2,2,0,2,12,66,30,36,303.6,0,55.2,88.8,144,0,0,0,0,0,144PARTIAL,14,2,3,129,2322.2,2,0,1,12,66,30,36,303.6,0,55.2,88.8,144,1,0,5,15,15,129PARTIAL,14,3,3,125.8,2085,1,4,0,5,66,30,36,303.6,14,23,88.8,125.8,1,0,0,0,0,125.8PARTIAL,14,4,3,144,1983.8,2,0,3,12,66,30,36,303.6,0,55.2,88.8,144,0,0,0,0,0,144PARTIAL,14,5,3,125.4,1894.4,1,5,0,6,66,30,36,303.6,12,27.6,88.8,128.4,1,3,0,0,3,125.4PARTIAL,14,6,3,131,2055.4,1,2,0,7,66,30,36,303.6,10,32.2,88.8,131,1,0,0,0,0,131PARTIAL,14,7,3,128.4,1816.2,1,3,0,6,66,30,36,303.6,12,27.6,88.8,128.4,1,0,0,0,0,128.4PARTIAL,14,8,3,126.4,1947.4,1,1,0,6,66,30,36,303.6,12,27.6,88.8,128.4,1,2,0,0,2,126.4PARTIAL,14,9,4,150.6,2083.8,1,1,0,7,59,34,25,436.6,10,51.8,88.8,150.6,1,0,0,0,0,150.6PARTIAL,14,10,4,156,2114.2,1,4,0,8,59,34,25,436.6,8,59.2,88.8,156,1,0,0,0,0,156PARTIAL,14,11,4,177.6,2341.8,2,0,3,12,59,34,25,436.6,0,88.8,88.8,177.6,0,0,0,0,0,177.6PARTIAL,14,12,4,150.6,2091,1,2,0,7,59,34,25,436.6,10,51.8,88.8,150.6,1,0,0,0,0,150.6PARTIAL,14,13,4,145.2,2082.6,1,3,0,6,59,34,25,436.6,12,44.4,88.8,145.2,1,0,0,0,0,145.2PARTIAL,14,14,4,145.2,2201,2,0,2,6,59,34,25,436.6,12,44.4,88.8,145.2,0,0,0,0,0,145.2PARTIAL,14,15,4,145.2,2117,1,5,0,6,59,34,25,436.6,12,44.4,88.8,145.2,1,0,0,0,0,145.2PARTIAL,14,16,4,150.6,2198.8,2,0,1,7,59,34,25,436.6,10,51.8,88.8,150.6,1,0,0,0,0,150.6PARTIAL,15,1,3,136.8,2553,2,0,2,12,65,31,34,325,0,60,88.8,148.8,1,0,4,12,12,136.8PARTIAL,15,2,3,148.8,2471,2,0,1,12,65,31,34,325,0,60,88.8,148.8,0,0,0,0,0,148.8PARTIAL,15,3,3,130.8,2215.8,1,4,0,6,65,31,34,325,12,30,88.8,130.8,1,0,0,0,0,130.8PARTIAL,15,4,3,142.8,2126.6,2,0,3,10,65,31,34,325,4,50,88.8,142.8,0,0,0,0,0,142.8PARTIAL,15,5,3,124.8,2019.2,1,5,0,6,65,31,34,325,12,30,88.8,130.8,1,0,2,6,6,124.8PARTIAL,15,6,3,133.8,2189.2,1,2,0,7,65,31,34,325,10,35,88.8,133.8,1,0,0,0,0,133.8PARTIAL,15,7,3,130.8,1947,1,3,0,6,65,31,34,325,12,30,88.8,130.8,1,0,0,0,0,130.8PARTIAL,15,8,3,124.8,2072.2,1,1,0,6,65,31,34,325,12,30,88.8,130.8,1,6,0,0,6,124.8PARTIAL,15,9,4,145.8,2229.6,1,1,0,5,56,27,29,481.6,14,43,88.8,145.8,1,0,0,0,0,145.8PARTIAL,15,10,4,152.4,2266.6,1,4,0,6,56,27,29,481.6,12,51.6,88.8,152.4,1,0,0,0,0,152.4PARTIAL,15,11,4,192,2533.8,2,0,3,12,56,27,29,481.6,0,103.2,88.8,192,0,0,0,0,0,192PARTIAL,15,12,4,145.8,2236.8,1,2,0,5,56,27,29,481.6,14,43,88.8,145.8,1,0,0,0,0,145.8PARTIAL,15,13,4,145.8,2228.4,1,3,0,5,56,27,29,481.6,14,43,88.8,145.8,1,0,0,0,0,145.8PARTIAL,15,14,4,165.6,2366.6,2,0,2,8,56,27,29,481.6,8,68.8,88.8,165.6,0,0,0,0,0,165.6PARTIAL,15,15,4,152.4,2269.4,1,5,0,6,56,27,29,481.6,12,51.6,88.8,152.4,1,0,0,0,0,152.4PARTIAL,15,16,4,172.2,2371,2,0,1,9,56,27,29,481.6,6,77.4,88.8,172.2,1,0,0,0,0,172.2FULL,1,1,1,157.4,157.4,1,5,0,4,39,21,18,600.6,16,61.6,88.8,166.4,1,6,1,3,9,157.4FULL,1,2,1,181.2,181.2,2,0,3,6,39,21,18,600.6,12,92.4,88.8,193.2,-,0,4,12,12,181.2FULL,1,3,1,169.8,169.8,1,3,0,5,39,21,18,600.6,14,77,88.8,179.8,-,4,2,6,10,169.8FULL,1,4,1,173.8,173.8,2,0,1,5,39,21,18,600.6,14,77,88.8,179.8,-,0,2,6,6,173.8FULL,1,5,1,163.4,163.4,1,2,0,4,39,21,18,600.6,16,61.6,88.8,166.4,-,3,0,0,3,163.4FULL,1,6,1,166.4,166.4,1,1,0,4,39,21,18,600.6,16,61.6,88.8,166.4,-,0,0,0,0,166.4FULL,1,7,1,163.4,163.4,1,4,0,4,39,21,18,600.6,16,61.6,88.8,166.4,-,0,1,3,3,163.4FULL,1,8,1,197.6,197.6,2,0,2,7,39,21,18,600.6,10,107.8,88.8,206.6,-,0,3,9,9,197.6FULL,1,9,2,161.8,161.8,1,1,0,5,47,25,22,573.4,14,61,88.8,163.8,-,2,0,0,2,161.8FULL,1,10,2,163.8,163.8,2,0,1,5,47,25,22,573.4,14,61,88.8,163.8,-,0,0,0,0,163.8FULL,1,11,2,163.8,163.8,1,2,0,5,47,25,22,573.4,14,61,88.8,163.8,-,0,0,0,0,163.8FULL,1,12,2,163.8,163.8,1,4,0,5,47,25,22,573.4,14,61,88.8,163.8,-,0,0,0,0,163.8FULL,1,13,2,163.8,163.8,2,0,2,5,47,25,22,573.4,14,61,88.8,163.8,-,0,0,0,0,163.8FULL,1,14,2,223.2,223.2,2,0,3,12,47,25,22,573.4,0,146.4,88.8,235.2,-,0,4,12,12,223.2FULL,1,15,2,161.8,161.8,1,5,0,5,47,25,22,573.4,14,61,88.8,163.8,-,2,0,0,2,161.8FULL,1,16,2,163.8,163.8,1,3,0,5,47,25,22,573.4,14,61,88.8,163.8,-,0,0,0,0,163.8FULL,2,1,1,174,331.4,1,5,0,6,42,24,18,596.4,12,85.2,88.8,186,-,6,2,6,12,174FULL,2,2,1,189.4,370.6,2,0,3,8,42,24,18,596.4,8,113.6,88.8,210.4,-,0,7,21,21,189.4FULL,2,3,1,141.4,311.2,1,3,0,3,42,24,18,596.4,18,42.6,88.8,149.4,-,5,1,3,8,141.4FULL,2,4,1,167.8,341.6,2,0,1,5,42,24,18,596.4,14,71,88.8,173.8,-,0,2,6,6,167.8FULL,2,5,1,154.6,318,1,2,0,4,42,24,18,596.4,16,56.8,88.8,161.6,-,7,0,0,7,154.6FULL,2,6,1,157.6,324,1,1,0,4,42,24,18,596.4,16,56.8,88.8,161.6,-,1,1,3,4,157.6FULL,2,7,1,183.2,346.6,1,4,0,7,42,24,18,596.4,10,99.4,88.8,198.2,-,0,5,15,15,183.2FULL,2,8,1,170.8,368.4,2,0,2,5,42,24,18,596.4,14,71,88.8,173.8,-,0,1,3,3,170.8FULL,2,9,2,152.4,314.2,1,1,0,6,56,33,23,481.6,12,51.6,88.8,152.4,-,0,0,0,0,152.4FULL,2,10,2,152.4,316.2,2,0,1,6,56,33,23,481.6,12,51.6,88.8,152.4,-,0,0,0,0,152.4FULL,2,11,2,145.8,309.6,1,2,0,5,56,33,23,481.6,14,43,88.8,145.8,-,0,0,0,0,145.8FULL,2,12,2,192,355.8,1,4,0,12,56,33,23,481.6,0,103.2,88.8,192,-,0,0,0,0,192FULL,2,13,2,145.8,309.6,2,0,2,5,56,33,23,481.6,14,43,88.8,145.8,-,0,0,0,0,145.8FULL,2,14,2,192,415.2,2,0,3,12,56,33,23,481.6,0,103.2,88.8,192,-,0,0,0,0,192FULL,2,15,2,145.8,307.6,1,5,0,5,56,33,23,481.6,14,43,88.8,145.8,-,0,0,0,0,145.8FULL,2,16,2,145.8,309.6,1,3,0,5,56,33,23,481.6,14,43,88.8,145.8,-,0,0,0,0,145.8FULL,3,1,1,162,493.4,1,5,0,4,38,25,13,600.4,16,63.2,88.8,168,-,6,0,0,6,162FULL,3,2,1,168,538.6,2,0,3,4,38,25,13,600.4,16,63.2,88.8,168,-,0,0,0,0,168FULL,3,3,1,187.2,498.4,1,3,0,8,38,25,13,600.4,8,126.4,88.8,223.2,-,0,12,36,36,187.2FULL,3,4,1,168,509.6,2,0,1,4,38,25,13,600.4,16,63.2,88.8,168,-,0,0,0,0,168FULL,3,5,1,168,486,1,2,0,4,38,25,13,600.4,16,63.2,88.8,168,-,0,0,0,0,168FULL,3,6,1,179.8,503.8,1,1,0,5,38,25,13,600.4,14,79,88.8,181.8,-,2,0,0,2,179.8FULL,3,7,1,164,510.6,1,4,0,4,38,25,13,600.4,16,63.2,88.8,168,-,4,0,0,4,164FULL,3,8,1,181.8,550.2,2,0,2,5,38,25,13,600.4,14,79,88.8,181.8,-,0,0,0,0,181.8FULL,3,9,2,156.8,471,1,1,0,5,49,25,24,558.6,14,57,88.8,159.8,-,3,0,0,3,156.8FULL,3,10,2,144.4,460.6,2,0,1,4,49,25,24,558.6,16,45.6,88.8,150.4,-,0,2,6,6,144.4FULL,3,11,2,157.8,467.4,1,2,0,5,49,25,24,558.6,14,57,88.8,159.8,-,2,0,0,2,157.8FULL,3,12,2,156.8,512.6,1,4,0,5,49,25,24,558.6,14,57,88.8,159.8,-,3,0,0,3,156.8FULL,3,13,2,176,485.6,2,0,2,8,49,25,24,558.6,8,91.2,88.8,188,-,0,4,12,12,176FULL,3,14,2,195.6,610.8,2,0,3,12,49,25,24,558.6,0,136.8,88.8,225.6,-,0,10,30,30,195.6FULL,3,15,2,153.8,461.4,1,5,0,5,49,25,24,558.6,14,57,88.8,159.8,-,6,0,0,6,153.8FULL,3,16,2,157.8,467.4,1,3,0,5,49,25,24,558.6,14,57,88.8,159.8,-,2,0,0,2,157.8FULL,4,1,1,178.8,672.2,1,5,0,5,38,22,16,600.4,14,79,88.8,181.8,-,3,0,0,3,178.8FULL,4,2,1,196.8,735.4,2,0,3,10,38,22,16,600.4,4,158,88.8,250.8,-,0,18,54,54,196.8FULL,4,3,1,164,662.4,1,3,0,4,38,22,16,600.4,16,63.2,88.8,168,-,4,0,0,4,164FULL,4,4,1,178.8,688.4,2,0,1,5,38,22,16,600.4,14,79,88.8,181.8,-,0,1,3,3,178.8FULL,4,5,1,165,651,1,2,0,4,38,22,16,600.4,16,63.2,88.8,168,-,3,0,0,3,165FULL,4,6,1,163,666.8,1,1,0,4,38,22,16,600.4,16,63.2,88.8,168,-,5,0,0,5,163FULL,4,7,1,176.8,687.4,1,4,0,5,38,22,16,600.4,14,79,88.8,181.8,-,5,0,0,5,176.8FULL,4,8,1,123.6,673.8,2,0,2,1,38,22,16,600.4,22,15.8,88.8,126.6,-,0,1,3,3,123.6FULL,4,9,2,165.8,636.8,1,1,0,5,45,25,20,585,14,65,88.8,167.8,-,2,0,0,2,165.8FULL,4,10,2,139.8,600.4,2,0,1,3,45,25,20,585,18,39,88.8,145.8,-,0,2,6,6,139.8FULL,4,11,2,165.8,633.2,1,2,0,5,45,25,20,585,14,65,88.8,167.8,-,2,0,0,2,165.8FULL,4,12,2,165.8,678.4,1,4,0,5,45,25,20,585,14,65,88.8,167.8,-,2,0,0,2,165.8FULL,4,13,2,161.8,647.4,2,0,2,5,45,25,20,585,14,65,88.8,167.8,-,0,2,6,6,161.8FULL,4,14,2,214.8,825.6,2,0,3,12,45,25,20,585,0,156,88.8,244.8,-,0,10,30,30,214.8FULL,4,15,2,161.8,623.2,1,5,0,5,45,25,20,585,14,65,88.8,167.8,-,6,0,0,6,161.8FULL,4,16,2,165.8,633.2,1,3,0,5,45,25,20,585,14,65,88.8,167.8,-,2,0,0,2,165.8FULL,5,1,1,165.8,838,1,5,0,5,42,33,9,596.4,14,71,88.8,173.8,-,5,1,3,8,165.8FULL,5,2,1,134.2,869.6,2,0,3,2,42,33,9,596.4,20,28.4,88.8,137.2,-,0,1,3,3,134.2FULL,5,3,1,201,863.4,1,3,0,11,42,33,9,596.4,2,156.2,88.8,247,-,1,15,45,46,201FULL,5,4,1,170.8,859.2,2,0,1,5,42,33,9,596.4,14,71,88.8,173.8,-,0,1,3,3,170.8FULL,5,5,1,153.6,804.6,1,2,0,4,42,33,9,596.4,16,56.8,88.8,161.6,-,8,0,0,8,153.6FULL,5,6,1,177,843.8,1,1,0,6,42,33,9,596.4,12,85.2,88.8,186,-,6,1,3,9,177FULL,5,7,1,186.2,873.6,1,4,0,7,42,33,9,596.4,10,99.4,88.8,198.2,-,3,3,9,12,186.2FULL,5,8,1,134.2,808,2,0,2,2,42,33,9,596.4,20,28.4,88.8,137.2,-,0,1,3,3,134.2FULL,5,9,2,162.8,799.6,1,1,0,5,45,25,20,585,14,65,88.8,167.8,-,5,0,0,5,162.8FULL,5,10,2,134.8,735.2,2,0,1,2,45,25,20,585,20,26,88.8,134.8,-,0,0,0,0,134.8FULL,5,11,2,162.8,796,1,2,0,5,45,25,20,585,14,65,88.8,167.8,-,5,0,0,5,162.8FULL,5,12,2,162.8,841.2,1,4,0,5,45,25,20,585,14,65,88.8,167.8,-,5,0,0,5,162.8FULL,5,13,2,172.8,820.2,2,0,2,6,45,25,20,585,12,78,88.8,178.8,-,0,2,6,6,172.8FULL,5,14,2,169.8,995.4,2,0,3,12,45,25,20,585,0,156,88.8,244.8,-,0,25,75,75,169.8FULL,5,15,2,160.8,784,1,5,0,5,45,25,20,585,14,65,88.8,167.8,-,7,0,0,7,160.8FULL,5,16,2,162.8,796,1,3,0,5,45,25,20,585,14,65,88.8,167.8,-,5,0,0,5,162.8FULL,6,1,1,174.8,1012.8,1,5,0,10,45,34,11,585,4,130,88.8,222.8,-,9,13,39,48,174.8FULL,6,2,1,156.8,1026.4,2,0,3,4,45,34,11,585,16,52,88.8,156.8,-,0,0,0,0,156.8FULL,6,3,1,174.8,1038.2,1,3,0,7,45,34,11,585,10,91,88.8,189.8,-,3,4,12,15,174.8FULL,6,4,1,167.8,1027,2,0,1,5,45,34,11,585,14,65,88.8,167.8,-,0,0,0,0,167.8FULL,6,5,1,158.8,963.4,1,2,0,5,45,34,11,585,14,65,88.8,167.8,-,0,3,9,9,158.8FULL,6,6,1,164.8,1008.6,1,1,0,6,45,34,11,585,12,78,88.8,178.8,-,5,3,9,14,164.8FULL,6,7,1,172.8,1046.4,1,4,0,6,45,34,11,585,12,78,88.8,178.8,-,6,0,0,6,172.8FULL,6,8,1,134.8,942.8,2,0,2,2,45,34,11,585,20,26,88.8,134.8,-,0,0,0,0,134.8FULL,6,9,2,164.8,964.4,1,1,0,5,44,25,19,589.6,14,67,88.8,169.8,-,5,0,0,5,164.8FULL,6,10,2,124.2,859.4,2,0,1,1,44,25,19,589.6,22,13.4,88.8,124.2,-,0,0,0,0,124.2FULL,6,11,2,164.8,960.8,1,2,0,5,44,25,19,589.6,14,67,88.8,169.8,-,5,0,0,5,164.8FULL,6,12,2,164.8,1006,1,4,0,5,44,25,19,589.6,14,67,88.8,169.8,-,5,0,0,5,164.8FULL,6,13,2,181.2,1001.4,2,0,2,6,44,25,19,589.6,12,80.4,88.8,181.2,-,0,0,0,0,181.2FULL,6,14,2,174.6,1170,2,0,3,12,44,25,19,589.6,0,160.8,88.8,249.6,-,0,25,75,75,174.6FULL,6,15,2,164.8,948.8,1,5,0,5,44,25,19,589.6,14,67,88.8,169.8,-,5,0,0,5,164.8FULL,6,16,2,164.8,960.8,1,3,0,5,44,25,19,589.6,14,67,88.8,169.8,-,5,0,0,5,164.8FULL,7,1,1,167.8,1180.6,1,5,0,5,43,26,17,593.4,14,69,88.8,171.8,-,4,0,0,4,167.8FULL,7,2,1,173.8,1200.2,2,0,3,10,43,26,17,593.4,4,138,88.8,230.8,-,0,19,57,57,173.8FULL,7,3,1,173.6,1211.8,1,3,0,6,43,26,17,593.4,12,82.8,88.8,183.6,-,7,1,3,10,173.6FULL,7,4,1,165.8,1192.8,2,0,1,5,43,26,17,593.4,14,69,88.8,171.8,-,0,2,6,6,165.8FULL,7,5,1,158,1121.4,1,2,0,4,43,26,17,593.4,16,55.2,88.8,160,-,2,0,0,2,158FULL,7,6,1,166.8,1175.4,1,1,0,5,43,26,17,593.4,14,69,88.8,171.8,-,5,0,0,5,166.8FULL,7,7,1,179.6,1226,1,4,0,6,43,26,17,593.4,12,82.8,88.8,183.6,-,4,0,0,4,179.6FULL,7,8,1,136.4,1079.2,2,0,2,2,43,26,17,593.4,20,27.6,88.8,136.4,-,0,0,0,0,136.4FULL,7,9,2,159.8,1124.2,1,1,0,5,44,25,19,589.6,14,67,88.8,169.8,-,10,0,0,10,159.8FULL,7,10,2,124.2,983.6,2,0,1,1,44,25,19,589.6,22,13.4,88.8,124.2,-,0,0,0,0,124.2FULL,7,11,2,159.8,1120.6,1,2,0,5,44,25,19,589.6,14,67,88.8,169.8,-,10,0,0,10,159.8FULL,7,12,2,169.8,1175.8,1,4,0,5,44,25,19,589.6,14,67,88.8,169.8,-,0,0,0,0,169.8FULL,7,13,2,151.2,1152.6,2,0,2,6,44,25,19,589.6,12,80.4,88.8,181.2,-,0,10,30,30,151.2FULL,7,14,2,129.6,1299.6,2,0,3,12,44,25,19,589.6,0,160.8,88.8,249.6,-,0,40,120,120,129.6FULL,7,15,2,149.8,1098.6,1,5,0,5,44,25,19,589.6,14,67,88.8,169.8,-,20,0,0,20,149.8FULL,7,16,2,159.8,1120.6,1,3,0,5,44,25,19,589.6,14,67,88.8,169.8,-,10,0,0,10,159.8FULL,8,1,1,160.8,1341.4,1,5,0,5,46,33,13,579.6,14,63,88.8,165.8,-,5,0,0,5,160.8FULL,8,2,1,176.4,1376.6,2,0,3,6,46,33,13,579.6,12,75.6,88.8,176.4,-,0,0,0,0,176.4FULL,8,3,1,189,1400.8,1,3,0,12,46,33,13,579.6,0,151.2,88.8,240,-,0,17,51,51,189FULL,8,4,1,165.8,1358.6,2,0,1,5,46,33,13,579.6,14,63,88.8,165.8,-,0,0,0,0,165.8FULL,8,5,1,155.2,1276.6,1,2,0,4,46,33,13,579.6,16,50.4,88.8,155.2,-,0,0,0,0,155.2FULL,8,6,1,169.4,1344.8,1,1,0,6,46,33,13,579.6,12,75.6,88.8,176.4,-,7,0,0,7,169.4FULL,8,7,1,171.4,1397.4,1,4,0,6,46,33,13,579.6,12,75.6,88.8,176.4,-,5,0,0,5,171.4FULL,8,8,1,134,1213.2,2,0,2,2,46,33,13,579.6,20,25.2,88.8,134,-,0,0,0,0,134FULL,8,9,2,161.8,1286,1,1,0,5,43,25,18,593.4,14,69,88.8,171.8,-,10,0,0,10,161.8FULL,8,10,2,124.6,1108.2,2,0,1,1,43,25,18,593.4,22,13.8,88.8,124.6,-,0,0,0,0,124.6FULL,8,11,2,161.8,1282.4,1,2,0,5,43,25,18,593.4,14,69,88.8,171.8,-,10,0,0,10,161.8FULL,8,12,2,171.8,1347.6,1,4,0,5,43,25,18,593.4,14,69,88.8,171.8,-,0,0,0,0,171.8FULL,8,13,2,162.8,1315.4,2,0,2,5,43,25,18,593.4,14,69,88.8,171.8,-,0,3,9,9,162.8FULL,8,14,2,134.4,1434,2,0,3,12,43,25,18,593.4,0,165.6,88.8,254.4,-,0,40,120,120,134.4FULL,8,15,2,158.8,1257.4,1,5,0,5,43,25,18,593.4,14,69,88.8,171.8,-,13,0,0,13,158.8FULL,8,16,2,161.8,1282.4,1,3,0,5,43,25,18,593.4,14,69,88.8,171.8,-,10,0,0,10,161.8FULL,9,1,1,163.4,1504.8,1,5,0,4,39,24,15,600.6,16,61.6,88.8,166.4,-,3,0,0,3,163.4FULL,9,2,1,193.2,1569.8,2,0,3,6,39,24,15,600.6,12,92.4,88.8,193.2,-,0,0,0,0,193.2FULL,9,3,1,166.4,1567.2,1,3,0,4,39,24,15,600.6,16,61.6,88.8,166.4,-,0,0,0,0,166.4FULL,9,4,1,182.6,1541.2,2,0,1,7,39,24,15,600.6,10,107.8,88.8,206.6,-,0,8,24,24,182.6FULL,9,5,1,192.2,1468.8,1,2,0,6,39,24,15,600.6,12,92.4,88.8,193.2,-,1,0,0,1,192.2FULL,9,6,1,177.8,1522.6,1,1,0,5,39,24,15,600.6,14,77,88.8,179.8,-,2,0,0,2,177.8FULL,9,7,1,177.8,1575.2,1,4,0,5,39,24,15,600.6,14,77,88.8,179.8,-,2,0,0,2,177.8FULL,9,8,1,139.6,1352.8,2,0,2,2,39,24,15,600.6,20,30.8,88.8,139.6,-,0,0,0,0,139.6FULL,9,9,2,156.8,1442.8,1,1,0,5,43,25,18,593.4,14,69,88.8,171.8,-,15,0,0,15,156.8FULL,9,10,2,124.6,1232.8,2,0,1,1,43,25,18,593.4,22,13.8,88.8,124.6,-,0,0,0,0,124.6FULL,9,11,2,156.8,1439.2,1,2,0,5,43,25,18,593.4,14,69,88.8,171.8,-,15,0,0,15,156.8FULL,9,12,2,156.8,1504.4,1,4,0,5,43,25,18,593.4,14,69,88.8,171.8,-,15,0,0,15,156.8FULL,9,13,2,171.8,1487.2,2,0,2,5,43,25,18,593.4,14,69,88.8,171.8,-,0,0,0,0,171.8FULL,9,14,2,29.4,1463.4,2,0,3,12,43,25,18,593.4,0,165.6,88.8,254.4,-,0,75,225,225,29.4FULL,9,15,2,156.8,1414.2,1,5,0,5,43,25,18,593.4,14,69,88.8,171.8,-,15,0,0,15,156.8FULL,9,16,2,156.8,1439.2,1,3,0,5,43,25,18,593.4,14,69,88.8,171.8,-,15,0,0,15,156.8FULL,10,1,1,171.8,1676.6,1,5,0,5,42,28,14,596.4,14,71,88.8,173.8,-,2,0,0,2,171.8FULL,10,2,1,173.8,1743.6,2,0,3,5,42,28,14,596.4,14,71,88.8,173.8,-,0,0,0,0,173.8FULL,10,3,1,183,1750.2,1,3,0,6,42,28,14,596.4,12,85.2,88.8,186,-,0,1,3,3,183FULL,10,4,1,186,1727.2,2,0,1,6,42,28,14,596.4,12,85.2,88.8,186,-,0,0,0,0,186FULL,10,5,1,183,1651.8,1,2,0,6,42,28,14,596.4,12,85.2,88.8,186,-,0,1,3,3,183FULL,10,6,1,186,1708.6,1,1,0,6,42,28,14,596.4,12,85.2,88.8,186,-,0,0,0,0,186FULL,10,7,1,173.8,1749,1,4,0,5,42,28,14,596.4,14,71,88.8,173.8,-,0,0,0,0,173.8FULL,10,8,1,149.4,1502.2,2,0,2,3,42,28,14,596.4,18,42.6,88.8,149.4,-,0,0,0,0,149.4FULL,10,9,2,156.8,1599.6,1,1,0,5,43,25,18,593.4,14,69,88.8,171.8,-,15,0,0,15,156.8FULL,10,10,2,124.6,1357.4,2,0,1,1,43,25,18,593.4,22,13.8,88.8,124.6,-,0,0,0,0,124.6FULL,10,11,2,156.8,1596,1,2,0,5,43,25,18,593.4,14,69,88.8,171.8,-,15,0,0,15,156.8FULL,10,12,2,171.8,1676.2,1,4,0,5,43,25,18,593.4,14,69,88.8,171.8,-,0,0,0,0,171.8FULL,10,13,2,171.8,1659,2,0,2,5,43,25,18,593.4,14,69,88.8,171.8,-,0,0,0,0,171.8FULL,10,14,2,119.4,1582.8,2,0,3,12,43,25,18,593.4,0,165.6,88.8,254.4,-,0,45,135,135,119.4FULL,10,15,2,156.8,1571,1,5,0,5,43,25,18,593.4,14,69,88.8,171.8,-,15,0,0,15,156.8FULL,10,16,2,171.8,1611,1,3,0,5,43,25,18,593.4,14,69,88.8,171.8,-,0,0,0,0,171.8FULL,11,1,1,173,1849.6,1,5,0,6,47,30,17,573.4,12,73.2,88.8,174,-,1,0,0,1,173FULL,11,2,1,174,1917.6,2,0,3,6,47,30,17,573.4,12,73.2,88.8,174,-,0,0,0,0,174FULL,11,3,1,166.2,1916.4,1,3,0,7,47,30,17,573.4,10,85.4,88.8,184.2,-,0,6,18,18,166.2FULL,11,4,1,174,1901.2,2,0,1,6,47,30,17,573.4,12,73.2,88.8,174,-,0,0,0,0,174FULL,11,5,1,163.8,1815.6,1,2,0,5,47,30,17,573.4,14,61,88.8,163.8,-,0,0,0,0,163.8FULL,11,6,1,171,1879.6,1,1,0,6,47,30,17,573.4,12,73.2,88.8,174,-,3,0,0,3,171FULL,11,7,1,172,1921,1,4,0,6,47,30,17,573.4,12,73.2,88.8,174,-,2,0,0,2,172FULL,11,8,1,163.8,1666,2,0,2,5,47,30,17,573.4,14,61,88.8,163.8,-,0,0,0,0,163.8FULL,11,9,2,171.8,1771.4,1,1,0,5,43,25,18,593.4,14,69,88.8,171.8,-,0,0,0,0,171.8FULL,11,10,2,124.6,1482,2,0,1,1,43,25,18,593.4,22,13.8,88.8,124.6,-,0,0,0,0,124.6FULL,11,11,2,156.8,1752.8,1,2,0,5,43,25,18,593.4,14,69,88.8,171.8,-,15,0,0,15,156.8FULL,11,12,2,171.8,1848,1,4,0,5,43,25,18,593.4,14,69,88.8,171.8,-,0,0,0,0,171.8FULL,11,13,2,171.8,1830.8,2,0,2,5,43,25,18,593.4,14,69,88.8,171.8,-,0,0,0,0,171.8FULL,11,14,2,119.4,1702.2,2,0,3,12,43,25,18,593.4,0,165.6,88.8,254.4,-,0,45,135,135,119.4FULL,11,15,2,156.8,1727.8,1,5,0,5,43,25,18,593.4,14,69,88.8,171.8,-,15,0,0,15,156.8FULL,11,16,2,156.8,1767.8,1,3,0,5,43,25,18,593.4,14,69,88.8,171.8,-,15,0,0,15,156.8FULL,12,1,1,186.2,2035.8,1,5,0,7,42,27,15,596.4,10,99.4,88.8,198.2,-,0,4,12,12,186.2FULL,12,2,1,186,2103.6,2,0,3,6,42,27,15,596.4,12,85.2,88.8,186,-,0,0,0,0,186FULL,12,3,1,172.8,2089.2,1,3,0,5,42,27,15,596.4,14,71,88.8,173.8,-,1,0,0,1,172.8FULL,12,4,1,186,2087.2,2,0,1,6,42,27,15,596.4,12,85.2,88.8,186,-,0,0,0,0,186FULL,12,5,1,161.6,1977.2,1,2,0,4,42,27,15,596.4,16,56.8,88.8,161.6,-,0,0,0,0,161.6FULL,12,6,1,171.8,2051.4,1,1,0,5,42,27,15,596.4,14,71,88.8,173.8,-,2,0,0,2,171.8FULL,12,7,1,185,2106,1,4,0,6,42,27,15,596.4,12,85.2,88.8,186,-,1,0,0,1,185FULL,12,8,1,149.4,1815.4,2,0,2,3,42,27,15,596.4,18,42.6,88.8,149.4,-,0,0,0,0,149.4FULL,12,9,2,171.8,1943.2,1,1,0,5,43,25,18,593.4,14,69,88.8,171.8,-,0,0,0,0,171.8FULL,12,10,2,124.6,1606.6,2,0,1,1,43,25,18,593.4,22,13.8,88.8,124.6,-,0,0,0,0,124.6FULL,12,11,2,156.8,1909.6,1,2,0,5,43,25,18,593.4,14,69,88.8,171.8,-,15,0,0,15,156.8FULL,12,12,2,171.8,2019.8,1,4,0,5,43,25,18,593.4,14,69,88.8,171.8,-,0,0,0,0,171.8FULL,12,13,2,171.8,2002.6,2,0,2,5,43,25,18,593.4,14,69,88.8,171.8,-,0,0,0,0,171.8FULL,12,14,2,119.4,1821.6,2,0,3,12,43,25,18,593.4,0,165.6,88.8,254.4,-,0,45,135,135,119.4FULL,12,15,2,156.8,1884.6,1,5,0,5,43,25,18,593.4,14,69,88.8,171.8,-,15,0,0,15,156.8FULL,12,16,2,156.8,1924.6,1,3,0,5,43,25,18,593.4,14,69,88.8,171.8,-,15,0,0,15,156.8FULL,13,1,1,175.8,2211.6,1,5,0,7,50,35,15,550,10,77,88.8,175.8,-,0,0,0,0,175.8FULL,13,2,1,160.8,2264.4,2,0,3,6,50,35,15,550,12,66,88.8,166.8,-,0,2,6,6,160.8FULL,13,3,1,175.8,2265,1,3,0,7,50,35,15,550,10,77,88.8,175.8,-,0,0,0,0,175.8FULL,13,4,1,160.8,2248,2,0,1,6,50,35,15,550,12,66,88.8,166.8,-,0,2,6,6,160.8FULL,13,5,1,175.8,2153,1,2,0,7,50,35,15,550,10,77,88.8,175.8,-,0,0,0,0,175.8FULL,13,6,1,175.8,2227.2,1,1,0,7,50,35,15,550,10,77,88.8,175.8,-,0,0,0,0,175.8FULL,13,7,1,171.8,2277.8,1,4,0,7,50,35,15,550,10,77,88.8,175.8,-,4,0,0,4,171.8FULL,13,8,1,139.8,1955.2,2,0,2,3,50,35,15,550,18,33,88.8,139.8,-,0,0,0,0,139.8FULL,13,9,2,169.8,2113,1,1,0,5,44,25,19,589.6,14,67,88.8,169.8,-,0,0,0,0,169.8FULL,13,10,2,135.6,1742.2,2,0,1,2,44,25,19,589.6,20,26.8,88.8,135.6,-,0,0,0,0,135.6FULL,13,11,2,154.8,2064.4,1,2,0,5,44,25,19,589.6,14,67,88.8,169.8,-,15,0,0,15,154.8FULL,13,12,2,169.8,2189.6,1,4,0,5,44,25,19,589.6,14,67,88.8,169.8,-,0,0,0,0,169.8FULL,13,13,2,169.8,2172.4,2,0,2,5,44,25,19,589.6,14,67,88.8,169.8,-,0,0,0,0,169.8FULL,13,14,2,114.6,1936.2,2,0,3,12,44,25,19,589.6,0,160.8,88.8,249.6,-,0,45,135,135,114.6FULL,13,15,2,154.8,2039.4,1,5,0,5,44,25,19,589.6,14,67,88.8,169.8,-,15,0,0,15,154.8FULL,13,16,2,154.8,2079.4,1,3,0,5,44,25,19,589.6,14,67,88.8,169.8,-,15,0,0,15,154.8FULL,14,1,1,164.6,2376.2,1,5,0,7,54,35,19,507.6,10,65.8,88.8,164.6,-,0,0,0,0,164.6FULL,14,2,1,141.8,2406.2,2,0,3,10,54,35,19,507.6,4,94,88.8,186.8,-,0,15,45,45,141.8FULL,14,3,1,159.6,2424.6,1,3,0,7,54,35,19,507.6,10,65.8,88.8,164.6,-,5,0,0,5,159.6FULL,14,4,1,142.2,2390.2,2,0,1,6,54,35,19,507.6,12,56.4,88.8,157.2,-,0,5,15,15,142.2FULL,14,5,1,163.6,2316.6,1,2,0,7,54,35,19,507.6,10,65.8,88.8,164.6,-,1,0,0,1,163.6FULL,14,6,1,160.6,2387.8,1,1,0,7,54,35,19,507.6,10,65.8,88.8,164.6,-,4,0,0,4,160.6FULL,14,7,1,154.6,2432.4,1,4,0,7,54,35,19,507.6,10,65.8,88.8,164.6,-,10,0,0,10,154.6FULL,14,8,1,135,2090.2,2,0,2,3,54,35,19,507.6,18,28.2,88.8,135,-,0,0,0,0,135FULL,14,9,2,169.8,2282.8,1,1,0,5,44,25,19,589.6,14,67,88.8,169.8,-,0,0,0,0,169.8FULL,14,10,2,135.6,1877.8,2,0,1,2,44,25,19,589.6,20,26.8,88.8,135.6,-,0,0,0,0,135.6FULL,14,11,2,154.8,2219.2,1,2,0,5,44,25,19,589.6,14,67,88.8,169.8,-,15,0,0,15,154.8FULL,14,12,2,169.8,2359.4,1,4,0,5,44,25,19,589.6,14,67,88.8,169.8,-,0,0,0,0,169.8FULL,14,13,2,169.8,2342.2,2,0,2,5,44,25,19,589.6,14,67,88.8,169.8,-,0,0,0,0,169.8FULL,14,14,2,114.6,2050.8,2,0,3,12,44,25,19,589.6,0,160.8,88.8,249.6,-,0,45,135,135,114.6FULL,14,15,2,154.8,2194.2,1,5,0,5,44,25,19,589.6,14,67,88.8,169.8,-,15,0,0,15,154.8FULL,14,16,2,154.8,2234.2,1,3,0,5,44,25,19,589.6,14,67,88.8,169.8,-,15,0,0,15,154.8FULL,15,1,1,135,2511.2,1,5,0,12,56,40,16,481.6,0,103.2,88.8,192,-,0,19,57,57,135FULL,15,2,1,149.4,2555.6,2,0,3,6,56,40,16,481.6,12,51.6,88.8,152.4,-,0,1,3,3,149.4FULL,15,3,1,146.6,2571.2,1,3,0,8,56,40,16,481.6,8,68.8,88.8,165.6,-,4,5,15,19,146.6FULL,15,4,1,149.4,2539.6,2,0,1,6,56,40,16,481.6,12,51.6,88.8,152.4,-,0,1,3,3,149.4FULL,15,5,1,145.4,2462,1,2,0,6,56,40,16,481.6,12,51.6,88.8,152.4,-,7,0,0,7,145.4FULL,15,6,1,136.6,2524.4,1,1,0,8,56,40,16,481.6,8,68.8,88.8,165.6,-,8,7,21,29,136.6FULL,15,7,1,133.4,2565.8,1,4,0,6,56,40,16,481.6,12,51.6,88.8,152.4,-,16,1,3,19,133.4FULL,15,8,1,136.2,2226.4,2,0,2,4,56,40,16,481.6,16,34.4,88.8,139.2,-,0,1,3,3,136.2FULL,15,9,2,148.8,2431.6,1,1,0,12,65,46,19,325,0,60,88.8,148.8,-,0,0,0,0,148.8FULL,15,10,2,118.8,1996.6,2,0,1,2,65,46,19,325,20,10,88.8,118.8,-,0,0,0,0,118.8FULL,15,11,2,138.8,2358,1,2,0,12,65,46,19,325,0,60,88.8,148.8,-,10,0,0,10,138.8FULL,15,12,2,148.8,2508.2,1,4,0,12,65,46,19,325,0,60,88.8,148.8,-,0,0,0,0,148.8FULL,15,13,2,127.8,2470,2,0,2,5,65,46,19,325,14,25,88.8,127.8,-,0,0,0,0,127.8FULL,15,14,2,118.8,2169.6,2,0,3,12,65,46,19,325,0,60,88.8,148.8,-,0,10,30,30,118.8FULL,15,15,2,127.8,2322,1,5,0,5,65,46,19,325,14,25,88.8,127.8,-,0,0,0,0,127.8FULL,15,16,2,127.8,2362,1,3,0,5,65,46,19,325,14,25,88.8,127.8,-,0,0,0,0,127.8FULL,1,1,3,204.6,204.6,1,5,0,12,49,35,14,558.6,0,136.8,88.8,225.6,1,6,5,15,21,204.6FULL,1,2,3,156.8,156.8,2,0,2,5,49,35,14,558.6,14,57,88.8,159.8,-,0,1,3,3,156.8FULL,1,3,3,176,176,1,1,0,8,49,35,14,558.6,8,91.2,88.8,188,-,3,3,9,12,176FULL,1,4,3,167.2,167.2,1,4,0,6,49,35,14,558.6,12,68.4,88.8,169.2,-,2,0,0,2,167.2FULL,1,5,3,153.8,153.8,2,0,3,5,49,35,14,558.6,14,57,88.8,159.8,-,0,2,6,6,153.8FULL,1,6,3,150.4,150.4,2,0,1,4,49,35,14,558.6,16,45.6,88.8,150.4,-,0,0,0,0,150.4FULL,1,7,3,163.2,163.2,1,3,0,6,49,35,14,558.6,12,68.4,88.8,169.2,-,0,2,6,6,163.2FULL,1,8,3,139,139,1,2,0,3,49,35,14,558.6,18,34.2,88.8,141,-,2,0,0,2,139FULL,1,9,4,164.8,164.8,1,1,0,4,40,26,14,600,16,60,88.8,164.8,-,0,0,0,0,164.8FULL,1,10,4,236.8,236.8,1,3,0,10,40,26,14,600,4,150,88.8,242.8,-,0,2,6,6,236.8FULL,1,11,4,187.8,187.8,2,0,2,6,40,26,14,600,12,90,88.8,190.8,-,0,1,3,3,187.8FULL,1,12,4,164.8,164.8,1,2,0,4,40,26,14,600,16,60,88.8,164.8,-,0,0,0,0,164.8FULL,1,13,4,164.8,164.8,1,4,0,4,40,26,14,600,16,60,88.8,164.8,-,0,0,0,0,164.8FULL,1,14,4,161.8,161.8,1,5,0,4,40,26,14,600,16,60,88.8,164.8,-,3,0,0,3,161.8FULL,1,15,4,164.8,164.8,2,0,1,4,40,26,14,600,16,60,88.8,164.8,-,0,0,0,0,164.8FULL,1,16,4,164.8,164.8,2,0,3,4,40,26,14,600,16,60,88.8,164.8,-,0,0,0,0,164.8FULL,2,1,3,110,314.6,1,5,0,1,52,31,21,530.4,22,10.2,88.8,121,-,2,3,9,11,110FULL,2,2,3,169.4,326.2,2,0,2,8,52,31,21,530.4,8,81.6,88.8,178.4,-,0,3,9,9,169.4FULL,2,3,3,169.4,345.4,1,1,0,8,52,31,21,530.4,8,81.6,88.8,178.4,-,0,3,9,9,169.4FULL,2,4,3,162.2,329.4,1,4,0,7,52,31,21,530.4,10,71.4,88.8,170.2,-,2,2,6,8,162.2FULL,2,5,3,144.8,298.6,2,0,3,5,52,31,21,530.4,14,51,88.8,153.8,-,0,3,9,9,144.8FULL,2,6,3,175.4,325.8,2,0,1,8,52,31,21,530.4,8,81.6,88.8,178.4,-,0,1,3,3,175.4